"","X","Ss","block.number","Description","Trial","RT","Acc","Angle","Condition","Target"
"1",1,2,1,"Conscious",1,563,1,95,"Same_Path","Rectangle"
"2",2,2,1,"Conscious",2,530,1,53,"Same_Path","Rectangle"
"3",3,2,1,"Conscious",3,555,1,49,"Different_Path","Diamond"
"4",4,2,1,"Conscious",4,472,1,313,"Different_Path","Rectangle"
"5",5,2,1,"Conscious",5,501,1,209,"Same_Path","Rectangle"
"6",6,2,1,"Conscious",6,597,1,198,"Same_Path","Diamond"
"7",7,2,1,"Conscious",7,570,1,53,"Same_Path","Rectangle"
"8",8,2,1,"Conscious",8,493,1,308,"Same_Path","Rectangle"
"10",10,2,1,"Conscious",10,490,1,127,"Different_Path","Diamond"
"11",11,2,1,"Conscious",11,555,1,185,"Different_Path","Rectangle"
"12",12,2,1,"Conscious",12,432,1,145,"Same_Path","Rectangle"
"13",13,2,1,"Conscious",13,422,1,28,"Same_Path","Rectangle"
"14",14,2,1,"Conscious",14,357,1,87,"Same_Path","Rectangle"
"15",15,2,1,"Conscious",15,386,1,45,"Different_Path","Rectangle"
"16",16,2,1,"Conscious",16,378,1,67,"Different_Path","Rectangle"
"17",17,2,1,"Conscious",17,507,1,87,"Same_Path","Diamond"
"18",18,2,1,"Conscious",18,499,1,151,"Different_Path","Diamond"
"19",19,2,1,"Conscious",19,340,1,18,"Same_Path","Diamond"
"20",20,2,1,"Conscious",20,331,1,325,"Same_Path","Diamond"
"22",22,2,1,"Conscious",22,492,1,177,"Same_Path","Diamond"
"23",23,2,1,"Conscious",23,413,1,177,"Different_Path","Rectangle"
"24",24,2,1,"Conscious",24,582,1,122,"Same_Path","Diamond"
"25",25,2,1,"Conscious",25,414,1,325,"Same_Path","Diamond"
"26",26,2,1,"Conscious",26,455,1,133,"Different_Path","Rectangle"
"27",27,2,1,"Conscious",27,448,1,41,"Different_Path","Rectangle"
"28",28,2,1,"Conscious",28,460,1,281,"Same_Path","Diamond"
"29",29,2,1,"Conscious",29,597,1,141,"Same_Path","Diamond"
"30",30,2,1,"Conscious",30,456,1,88,"Different_Path","Rectangle"
"31",31,2,1,"Conscious",31,506,1,146,"Different_Path","Diamond"
"32",32,2,1,"Conscious",32,457,1,35,"Different_Path","Diamond"
"33",33,2,1,"Conscious",33,418,1,48,"Different_Path","Diamond"
"34",34,2,1,"Conscious",34,420,1,340,"Different_Path","Rectangle"
"36",36,2,1,"Conscious",36,440,1,208,"Same_Path","Rectangle"
"37",37,2,1,"Conscious",37,436,1,22,"Different_Path","Diamond"
"38",38,2,1,"Conscious",38,425,1,85,"Same_Path","Diamond"
"39",39,2,1,"Conscious",39,496,1,128,"Different_Path","Rectangle"
"40",40,2,1,"Conscious",40,545,1,296,"Different_Path","Rectangle"
"41",41,2,1,"Conscious",41,433,1,6,"Different_Path","Diamond"
"42",42,2,1,"Conscious",42,434,1,16,"Different_Path","Rectangle"
"43",43,2,1,"Conscious",43,488,1,61,"Different_Path","Diamond"
"44",44,2,1,"Conscious",44,483,1,234,"Different_Path","Rectangle"
"45",45,2,1,"Conscious",45,446,1,264,"Same_Path","Diamond"
"46",46,2,1,"Conscious",46,425,1,234,"Different_Path","Diamond"
"47",47,2,1,"Conscious",47,449,1,163,"Same_Path","Rectangle"
"48",48,2,1,"Conscious",48,428,1,197,"Same_Path","Diamond"
"49",49,2,1,"Conscious",49,371,1,107,"Same_Path","Diamond"
"50",50,2,1,"Conscious",50,381,1,269,"Different_Path","Diamond"
"51",51,2,1,"Conscious",51,412,1,69,"Same_Path","Rectangle"
"52",52,2,1,"Conscious",52,517,1,248,"Same_Path","Rectangle"
"53",53,2,1,"Conscious",53,409,1,67,"Different_Path","Diamond"
"54",54,2,1,"Conscious",54,494,1,133,"Same_Path","Diamond"
"55",55,2,1,"Conscious",55,407,1,226,"Different_Path","Rectangle"
"56",56,2,1,"Conscious",56,475,1,281,"Different_Path","Diamond"
"57",57,2,1,"Conscious",57,424,1,30,"Same_Path","Rectangle"
"58",58,2,1,"Conscious",58,431,1,335,"Same_Path","Diamond"
"59",59,2,1,"Conscious",59,444,1,280,"Different_Path","Rectangle"
"60",60,2,1,"Conscious",60,408,1,176,"Different_Path","Rectangle"
"61",61,2,1,"Conscious",61,385,1,157,"Different_Path","Rectangle"
"62",62,2,1,"Conscious",62,433,1,161,"Different_Path","Diamond"
"63",63,2,1,"Conscious",63,532,1,111,"Different_Path","Diamond"
"64",64,2,1,"Conscious",64,741,1,184,"Same_Path","Diamond"
"65",257,3,1,"Conscious",1,627,1,236,"Different_Path","Diamond"
"66",258,3,1,"Conscious",2,415,1,91,"Same_Path","Rectangle"
"67",259,3,1,"Conscious",3,464,1,35,"Same_Path","Diamond"
"68",260,3,1,"Conscious",4,367,1,2,"Different_Path","Rectangle"
"70",262,3,1,"Conscious",6,574,1,216,"Different_Path","Diamond"
"71",263,3,1,"Conscious",7,391,1,91,"Same_Path","Rectangle"
"72",264,3,1,"Conscious",8,574,1,318,"Same_Path","Rectangle"
"73",265,3,1,"Conscious",9,496,1,182,"Different_Path","Rectangle"
"74",266,3,1,"Conscious",10,857,1,268,"Different_Path","Rectangle"
"75",267,3,1,"Conscious",11,480,1,60,"Same_Path","Diamond"
"76",268,3,1,"Conscious",12,437,1,6,"Different_Path","Rectangle"
"77",269,3,1,"Conscious",13,435,1,75,"Same_Path","Rectangle"
"78",270,3,1,"Conscious",14,536,1,103,"Same_Path","Rectangle"
"79",271,3,1,"Conscious",15,506,1,108,"Different_Path","Diamond"
"80",272,3,1,"Conscious",16,537,1,240,"Different_Path","Diamond"
"81",273,3,1,"Conscious",17,482,1,82,"Same_Path","Diamond"
"82",274,3,1,"Conscious",18,589,1,238,"Same_Path","Diamond"
"83",275,3,1,"Conscious",19,539,1,78,"Same_Path","Diamond"
"84",276,3,1,"Conscious",20,524,1,34,"Same_Path","Rectangle"
"85",277,3,1,"Conscious",21,663,1,285,"Same_Path","Diamond"
"86",278,3,1,"Conscious",22,566,1,328,"Same_Path","Rectangle"
"87",279,3,1,"Conscious",23,530,1,244,"Different_Path","Rectangle"
"88",280,3,1,"Conscious",24,581,1,151,"Same_Path","Diamond"
"89",281,3,1,"Conscious",25,468,1,302,"Same_Path","Rectangle"
"90",282,3,1,"Conscious",26,451,1,38,"Same_Path","Rectangle"
"91",283,3,1,"Conscious",27,391,1,223,"Same_Path","Rectangle"
"92",284,3,1,"Conscious",28,582,1,178,"Different_Path","Diamond"
"93",285,3,1,"Conscious",29,685,1,345,"Different_Path","Rectangle"
"94",286,3,1,"Conscious",30,529,1,323,"Different_Path","Rectangle"
"95",287,3,1,"Conscious",31,458,1,7,"Same_Path","Rectangle"
"96",288,3,1,"Conscious",32,459,1,73,"Different_Path","Diamond"
"97",289,3,1,"Conscious",33,365,1,80,"Different_Path","Rectangle"
"98",290,3,1,"Conscious",34,592,1,222,"Same_Path","Diamond"
"99",291,3,1,"Conscious",35,421,1,136,"Same_Path","Rectangle"
"100",292,3,1,"Conscious",36,719,1,178,"Different_Path","Diamond"
"101",293,3,1,"Conscious",37,436,1,225,"Different_Path","Diamond"
"102",294,3,1,"Conscious",38,481,1,260,"Different_Path","Diamond"
"104",296,3,1,"Conscious",40,638,1,161,"Different_Path","Diamond"
"105",297,3,1,"Conscious",41,563,1,135,"Same_Path","Diamond"
"106",298,3,1,"Conscious",42,398,1,123,"Same_Path","Rectangle"
"107",299,3,1,"Conscious",43,500,1,219,"Different_Path","Diamond"
"108",300,3,1,"Conscious",44,421,1,140,"Different_Path","Rectangle"
"109",301,3,1,"Conscious",45,476,1,306,"Different_Path","Rectangle"
"110",302,3,1,"Conscious",46,441,1,60,"Different_Path","Rectangle"
"111",303,3,1,"Conscious",47,517,1,215,"Different_Path","Rectangle"
"112",304,3,1,"Conscious",48,482,1,283,"Same_Path","Rectangle"
"113",305,3,1,"Conscious",49,493,1,186,"Same_Path","Diamond"
"114",306,3,1,"Conscious",50,519,1,226,"Same_Path","Diamond"
"115",307,3,1,"Conscious",51,500,1,193,"Different_Path","Diamond"
"116",308,3,1,"Conscious",52,397,1,166,"Same_Path","Rectangle"
"117",309,3,1,"Conscious",53,515,1,70,"Different_Path","Diamond"
"118",310,3,1,"Conscious",54,504,1,127,"Same_Path","Diamond"
"119",311,3,1,"Conscious",55,479,1,199,"Different_Path","Diamond"
"120",312,3,1,"Conscious",56,493,1,158,"Different_Path","Rectangle"
"121",313,3,1,"Conscious",57,406,1,261,"Different_Path","Diamond"
"122",314,3,1,"Conscious",58,473,1,237,"Same_Path","Rectangle"
"123",315,3,1,"Conscious",59,494,1,150,"Different_Path","Diamond"
"124",316,3,1,"Conscious",60,432,1,280,"Same_Path","Diamond"
"125",317,3,1,"Conscious",61,573,1,130,"Same_Path","Diamond"
"126",318,3,1,"Conscious",62,398,1,328,"Same_Path","Diamond"
"127",319,3,1,"Conscious",63,434,1,82,"Different_Path","Rectangle"
"128",320,3,1,"Conscious",64,463,1,103,"Different_Path","Rectangle"
"129",513,4,1,"Conscious",1,397,1,63,"Same_Path","Rectangle"
"130",514,4,1,"Conscious",2,452,1,33,"Different_Path","Rectangle"
"131",515,4,1,"Conscious",3,478,1,118,"Same_Path","Rectangle"
"132",516,4,1,"Conscious",4,459,1,32,"Same_Path","Diamond"
"133",517,4,1,"Conscious",5,490,1,343,"Same_Path","Diamond"
"134",518,4,1,"Conscious",6,566,1,227,"Same_Path","Rectangle"
"135",519,4,1,"Conscious",7,657,1,14,"Different_Path","Diamond"
"136",520,4,1,"Conscious",8,602,1,24,"Same_Path","Diamond"
"137",521,4,1,"Conscious",9,509,1,7,"Different_Path","Rectangle"
"138",522,4,1,"Conscious",10,789,1,68,"Same_Path","Rectangle"
"139",523,4,1,"Conscious",11,530,1,349,"Same_Path","Diamond"
"140",524,4,1,"Conscious",12,989,1,7,"Same_Path","Rectangle"
"141",525,4,1,"Conscious",13,436,1,193,"Different_Path","Rectangle"
"142",526,4,1,"Conscious",14,634,1,114,"Same_Path","Diamond"
"143",527,4,1,"Conscious",15,711,1,233,"Different_Path","Diamond"
"144",528,4,1,"Conscious",16,470,1,34,"Same_Path","Diamond"
"145",529,4,1,"Conscious",17,509,1,164,"Different_Path","Rectangle"
"146",530,4,1,"Conscious",18,765,1,321,"Different_Path","Diamond"
"147",531,4,1,"Conscious",19,520,1,32,"Different_Path","Diamond"
"149",533,4,1,"Conscious",21,1142,1,76,"Same_Path","Diamond"
"150",534,4,1,"Conscious",22,525,1,183,"Same_Path","Rectangle"
"151",535,4,1,"Conscious",23,705,1,151,"Different_Path","Rectangle"
"152",536,4,1,"Conscious",24,808,1,172,"Same_Path","Diamond"
"153",537,4,1,"Conscious",25,515,1,139,"Same_Path","Rectangle"
"154",538,4,1,"Conscious",26,641,1,278,"Different_Path","Diamond"
"155",539,4,1,"Conscious",27,566,1,352,"Same_Path","Rectangle"
"156",540,4,1,"Conscious",28,601,1,119,"Same_Path","Diamond"
"157",541,4,1,"Conscious",29,756,1,125,"Different_Path","Diamond"
"158",542,4,1,"Conscious",30,857,1,116,"Same_Path","Rectangle"
"159",543,4,1,"Conscious",31,779,1,166,"Different_Path","Diamond"
"160",544,4,1,"Conscious",32,732,1,215,"Different_Path","Diamond"
"161",545,4,1,"Conscious",33,861,1,136,"Different_Path","Rectangle"
"162",546,4,1,"Conscious",34,902,1,308,"Different_Path","Diamond"
"163",547,4,1,"Conscious",35,693,1,296,"Different_Path","Rectangle"
"164",548,4,1,"Conscious",36,542,1,98,"Different_Path","Rectangle"
"165",549,4,1,"Conscious",37,582,1,117,"Different_Path","Diamond"
"166",550,4,1,"Conscious",38,661,1,327,"Same_Path","Diamond"
"167",551,4,1,"Conscious",39,548,1,94,"Same_Path","Rectangle"
"168",552,4,1,"Conscious",40,684,1,222,"Different_Path","Diamond"
"169",553,4,1,"Conscious",41,383,1,227,"Different_Path","Rectangle"
"170",554,4,1,"Conscious",42,542,1,171,"Same_Path","Rectangle"
"171",555,4,1,"Conscious",43,565,1,307,"Different_Path","Diamond"
"172",556,4,1,"Conscious",44,441,1,188,"Same_Path","Rectangle"
"173",557,4,1,"Conscious",45,540,1,183,"Same_Path","Rectangle"
"174",558,4,1,"Conscious",46,941,1,200,"Same_Path","Rectangle"
"175",559,4,1,"Conscious",47,644,1,267,"Same_Path","Diamond"
"176",560,4,1,"Conscious",48,600,1,280,"Same_Path","Diamond"
"177",561,4,1,"Conscious",49,557,1,332,"Same_Path","Rectangle"
"178",562,4,1,"Conscious",50,698,1,308,"Different_Path","Diamond"
"179",563,4,1,"Conscious",51,556,1,151,"Different_Path","Diamond"
"181",565,4,1,"Conscious",53,634,1,112,"Same_Path","Rectangle"
"182",566,4,1,"Conscious",54,455,1,31,"Different_Path","Rectangle"
"183",567,4,1,"Conscious",55,545,1,171,"Same_Path","Diamond"
"184",568,4,1,"Conscious",56,768,1,248,"Different_Path","Rectangle"
"185",569,4,1,"Conscious",57,763,1,61,"Different_Path","Diamond"
"186",570,4,1,"Conscious",58,662,1,145,"Different_Path","Rectangle"
"187",571,4,1,"Conscious",59,829,1,95,"Same_Path","Diamond"
"188",572,4,1,"Conscious",60,453,1,357,"Different_Path","Rectangle"
"189",573,4,1,"Conscious",61,524,1,7,"Different_Path","Diamond"
"190",574,4,1,"Conscious",62,599,1,344,"Different_Path","Diamond"
"191",575,4,1,"Conscious",63,626,1,180,"Different_Path","Rectangle"
"192",576,4,1,"Conscious",64,754,1,196,"Same_Path","Diamond"
"193",769,5,1,"Conscious",1,517,1,201,"Same_Path","Diamond"
"194",770,5,1,"Conscious",2,538,1,56,"Same_Path","Rectangle"
"195",771,5,1,"Conscious",3,564,1,331,"Same_Path","Rectangle"
"196",772,5,1,"Conscious",4,535,1,113,"Different_Path","Diamond"
"197",773,5,1,"Conscious",5,560,1,43,"Different_Path","Rectangle"
"198",774,5,1,"Conscious",6,621,1,4,"Different_Path","Diamond"
"199",775,5,1,"Conscious",7,447,1,280,"Different_Path","Diamond"
"200",776,5,1,"Conscious",8,626,1,181,"Same_Path","Rectangle"
"201",777,5,1,"Conscious",9,481,1,237,"Different_Path","Rectangle"
"202",778,5,1,"Conscious",10,444,1,318,"Same_Path","Rectangle"
"203",779,5,1,"Conscious",11,406,1,149,"Different_Path","Diamond"
"204",780,5,1,"Conscious",12,529,1,89,"Different_Path","Rectangle"
"205",781,5,1,"Conscious",13,477,1,234,"Different_Path","Rectangle"
"206",782,5,1,"Conscious",14,546,1,196,"Same_Path","Diamond"
"207",783,5,1,"Conscious",15,465,1,48,"Same_Path","Rectangle"
"208",784,5,1,"Conscious",16,512,1,352,"Different_Path","Rectangle"
"209",785,5,1,"Conscious",17,446,1,41,"Different_Path","Rectangle"
"210",786,5,1,"Conscious",18,497,1,253,"Different_Path","Rectangle"
"211",787,5,1,"Conscious",19,418,1,60,"Different_Path","Rectangle"
"212",788,5,1,"Conscious",20,564,1,12,"Same_Path","Diamond"
"213",789,5,1,"Conscious",21,527,1,289,"Same_Path","Rectangle"
"214",790,5,1,"Conscious",22,418,1,157,"Different_Path","Rectangle"
"215",791,5,1,"Conscious",23,508,1,50,"Same_Path","Rectangle"
"216",792,5,1,"Conscious",24,371,1,337,"Same_Path","Rectangle"
"217",793,5,1,"Conscious",25,372,1,157,"Different_Path","Rectangle"
"218",794,5,1,"Conscious",26,501,1,105,"Different_Path","Diamond"
"219",795,5,1,"Conscious",27,493,1,273,"Same_Path","Rectangle"
"220",796,5,1,"Conscious",28,502,1,261,"Same_Path","Diamond"
"221",797,5,1,"Conscious",29,469,1,81,"Same_Path","Rectangle"
"222",798,5,1,"Conscious",30,437,1,8,"Different_Path","Diamond"
"223",799,5,1,"Conscious",31,402,1,188,"Same_Path","Diamond"
"224",800,5,1,"Conscious",32,461,1,218,"Different_Path","Rectangle"
"225",801,5,1,"Conscious",33,429,1,61,"Same_Path","Rectangle"
"226",802,5,1,"Conscious",34,404,1,163,"Different_Path","Rectangle"
"227",803,5,1,"Conscious",35,487,1,218,"Different_Path","Diamond"
"228",804,5,1,"Conscious",36,459,1,194,"Different_Path","Diamond"
"229",805,5,1,"Conscious",37,508,1,37,"Same_Path","Diamond"
"230",806,5,1,"Conscious",38,435,1,142,"Different_Path","Diamond"
"231",807,5,1,"Conscious",39,364,1,254,"Same_Path","Diamond"
"232",808,5,1,"Conscious",40,408,1,91,"Different_Path","Rectangle"
"233",809,5,1,"Conscious",41,411,1,217,"Same_Path","Rectangle"
"234",810,5,1,"Conscious",42,516,1,67,"Different_Path","Diamond"
"235",811,5,1,"Conscious",43,330,1,168,"Same_Path","Diamond"
"238",814,5,1,"Conscious",46,478,1,82,"Same_Path","Rectangle"
"239",815,5,1,"Conscious",47,435,1,8,"Same_Path","Rectangle"
"240",816,5,1,"Conscious",48,424,1,234,"Different_Path","Rectangle"
"241",817,5,1,"Conscious",49,512,1,315,"Different_Path","Diamond"
"242",818,5,1,"Conscious",50,437,1,229,"Different_Path","Diamond"
"243",819,5,1,"Conscious",51,418,1,185,"Different_Path","Diamond"
"244",820,5,1,"Conscious",52,458,1,19,"Different_Path","Diamond"
"245",821,5,1,"Conscious",53,467,1,71,"Same_Path","Rectangle"
"246",822,5,1,"Conscious",54,584,1,68,"Different_Path","Diamond"
"247",823,5,1,"Conscious",55,480,1,192,"Same_Path","Rectangle"
"248",824,5,1,"Conscious",56,555,1,339,"Same_Path","Diamond"
"249",825,5,1,"Conscious",57,504,1,320,"Same_Path","Diamond"
"250",826,5,1,"Conscious",58,448,1,163,"Same_Path","Diamond"
"251",827,5,1,"Conscious",59,475,1,121,"Different_Path","Diamond"
"252",828,5,1,"Conscious",60,460,1,86,"Same_Path","Diamond"
"253",829,5,1,"Conscious",61,467,1,296,"Different_Path","Diamond"
"254",830,5,1,"Conscious",62,497,1,50,"Same_Path","Diamond"
"255",831,5,1,"Conscious",63,514,1,279,"Same_Path","Diamond"
"256",832,5,1,"Conscious",64,471,1,126,"Same_Path","Diamond"
"257",1025,6,1,"Conscious",1,586,1,95,"Same_Path","Rectangle"
"258",1026,6,1,"Conscious",2,644,1,53,"Same_Path","Rectangle"
"259",1027,6,1,"Conscious",3,639,1,49,"Different_Path","Diamond"
"260",1028,6,1,"Conscious",4,644,1,313,"Different_Path","Rectangle"
"261",1029,6,1,"Conscious",5,711,1,209,"Same_Path","Rectangle"
"262",1030,6,1,"Conscious",6,454,1,198,"Same_Path","Diamond"
"263",1031,6,1,"Conscious",7,570,1,53,"Same_Path","Rectangle"
"264",1032,6,1,"Conscious",8,525,1,308,"Same_Path","Rectangle"
"265",1033,6,1,"Conscious",9,568,1,224,"Same_Path","Diamond"
"266",1034,6,1,"Conscious",10,668,1,127,"Different_Path","Diamond"
"267",1035,6,1,"Conscious",11,545,1,185,"Different_Path","Rectangle"
"268",1036,6,1,"Conscious",12,488,1,145,"Same_Path","Rectangle"
"269",1037,6,1,"Conscious",13,529,1,28,"Same_Path","Rectangle"
"270",1038,6,1,"Conscious",14,485,1,87,"Same_Path","Rectangle"
"271",1039,6,1,"Conscious",15,504,1,45,"Different_Path","Rectangle"
"272",1040,6,1,"Conscious",16,465,1,67,"Different_Path","Rectangle"
"273",1041,6,1,"Conscious",17,656,1,87,"Same_Path","Diamond"
"274",1042,6,1,"Conscious",18,650,1,151,"Different_Path","Diamond"
"275",1043,6,1,"Conscious",19,413,1,18,"Same_Path","Diamond"
"276",1044,6,1,"Conscious",20,360,1,325,"Same_Path","Diamond"
"278",1046,6,1,"Conscious",22,613,1,177,"Same_Path","Diamond"
"279",1047,6,1,"Conscious",23,566,1,177,"Different_Path","Rectangle"
"280",1048,6,1,"Conscious",24,594,1,122,"Same_Path","Diamond"
"281",1049,6,1,"Conscious",25,559,1,325,"Same_Path","Diamond"
"282",1050,6,1,"Conscious",26,484,1,133,"Different_Path","Rectangle"
"283",1051,6,1,"Conscious",27,551,1,41,"Different_Path","Rectangle"
"284",1052,6,1,"Conscious",28,599,1,281,"Same_Path","Diamond"
"285",1053,6,1,"Conscious",29,620,1,141,"Same_Path","Diamond"
"286",1054,6,1,"Conscious",30,621,1,88,"Different_Path","Rectangle"
"287",1055,6,1,"Conscious",31,664,1,146,"Different_Path","Diamond"
"288",1056,6,1,"Conscious",32,894,1,35,"Different_Path","Diamond"
"289",1057,6,1,"Conscious",33,663,1,48,"Different_Path","Diamond"
"290",1058,6,1,"Conscious",34,544,1,340,"Different_Path","Rectangle"
"291",1059,6,1,"Conscious",35,631,1,345,"Same_Path","Rectangle"
"292",1060,6,1,"Conscious",36,551,1,208,"Same_Path","Rectangle"
"293",1061,6,1,"Conscious",37,574,1,22,"Different_Path","Diamond"
"294",1062,6,1,"Conscious",38,815,1,85,"Same_Path","Diamond"
"295",1063,6,1,"Conscious",39,456,1,128,"Different_Path","Rectangle"
"296",1064,6,1,"Conscious",40,514,1,296,"Different_Path","Rectangle"
"297",1065,6,1,"Conscious",41,639,1,6,"Different_Path","Diamond"
"298",1066,6,1,"Conscious",42,412,1,16,"Different_Path","Rectangle"
"299",1067,6,1,"Conscious",43,575,1,61,"Different_Path","Diamond"
"300",1068,6,1,"Conscious",44,545,1,234,"Different_Path","Rectangle"
"301",1069,6,1,"Conscious",45,608,1,264,"Same_Path","Diamond"
"302",1070,6,1,"Conscious",46,659,1,234,"Different_Path","Diamond"
"303",1071,6,1,"Conscious",47,364,1,163,"Same_Path","Rectangle"
"304",1072,6,1,"Conscious",48,552,1,197,"Same_Path","Diamond"
"305",1073,6,1,"Conscious",49,669,1,107,"Same_Path","Diamond"
"306",1074,6,1,"Conscious",50,508,1,269,"Different_Path","Diamond"
"307",1075,6,1,"Conscious",51,492,1,69,"Same_Path","Rectangle"
"308",1076,6,1,"Conscious",52,471,1,248,"Same_Path","Rectangle"
"309",1077,6,1,"Conscious",53,572,1,67,"Different_Path","Diamond"
"310",1078,6,1,"Conscious",54,560,1,133,"Same_Path","Diamond"
"311",1079,6,1,"Conscious",55,549,1,226,"Different_Path","Rectangle"
"312",1080,6,1,"Conscious",56,668,1,281,"Different_Path","Diamond"
"313",1081,6,1,"Conscious",57,563,1,30,"Same_Path","Rectangle"
"314",1082,6,1,"Conscious",58,593,1,335,"Same_Path","Diamond"
"315",1083,6,1,"Conscious",59,510,1,280,"Different_Path","Rectangle"
"316",1084,6,1,"Conscious",60,565,1,176,"Different_Path","Rectangle"
"317",1085,6,1,"Conscious",61,392,1,157,"Different_Path","Rectangle"
"318",1086,6,1,"Conscious",62,496,1,161,"Different_Path","Diamond"
"319",1087,6,1,"Conscious",63,649,1,111,"Different_Path","Diamond"
"320",1088,6,1,"Conscious",64,588,1,184,"Same_Path","Diamond"
"321",1281,7,1,"Conscious",1,675,1,95,"Same_Path","Rectangle"
"322",1282,7,1,"Conscious",2,639,1,53,"Same_Path","Rectangle"
"323",1283,7,1,"Conscious",3,566,1,49,"Different_Path","Diamond"
"324",1284,7,1,"Conscious",4,476,1,313,"Different_Path","Rectangle"
"325",1285,7,1,"Conscious",5,551,1,209,"Same_Path","Rectangle"
"326",1286,7,1,"Conscious",6,563,1,198,"Same_Path","Diamond"
"327",1287,7,1,"Conscious",7,641,1,53,"Same_Path","Rectangle"
"328",1288,7,1,"Conscious",8,464,1,308,"Same_Path","Rectangle"
"329",1289,7,1,"Conscious",9,584,1,224,"Same_Path","Diamond"
"330",1290,7,1,"Conscious",10,524,1,127,"Different_Path","Diamond"
"331",1291,7,1,"Conscious",11,477,1,185,"Different_Path","Rectangle"
"332",1292,7,1,"Conscious",12,528,1,145,"Same_Path","Rectangle"
"333",1293,7,1,"Conscious",13,495,1,28,"Same_Path","Rectangle"
"334",1294,7,1,"Conscious",14,439,1,87,"Same_Path","Rectangle"
"335",1295,7,1,"Conscious",15,430,1,45,"Different_Path","Rectangle"
"336",1296,7,1,"Conscious",16,431,1,67,"Different_Path","Rectangle"
"337",1297,7,1,"Conscious",17,562,1,87,"Same_Path","Diamond"
"338",1298,7,1,"Conscious",18,665,1,151,"Different_Path","Diamond"
"339",1299,7,1,"Conscious",19,412,1,18,"Same_Path","Diamond"
"340",1300,7,1,"Conscious",20,464,1,325,"Same_Path","Diamond"
"341",1301,7,1,"Conscious",21,483,1,341,"Same_Path","Rectangle"
"342",1302,7,1,"Conscious",22,506,1,177,"Same_Path","Diamond"
"343",1303,7,1,"Conscious",23,784,1,177,"Different_Path","Rectangle"
"344",1304,7,1,"Conscious",24,563,1,122,"Same_Path","Diamond"
"345",1305,7,1,"Conscious",25,498,1,325,"Same_Path","Diamond"
"346",1306,7,1,"Conscious",26,467,1,133,"Different_Path","Rectangle"
"347",1307,7,1,"Conscious",27,558,1,41,"Different_Path","Rectangle"
"348",1308,7,1,"Conscious",28,484,1,281,"Same_Path","Diamond"
"349",1309,7,1,"Conscious",29,579,1,141,"Same_Path","Diamond"
"350",1310,7,1,"Conscious",30,444,1,88,"Different_Path","Rectangle"
"351",1311,7,1,"Conscious",31,562,1,146,"Different_Path","Diamond"
"352",1312,7,1,"Conscious",32,512,1,35,"Different_Path","Diamond"
"353",1313,7,1,"Conscious",33,532,1,48,"Different_Path","Diamond"
"354",1314,7,1,"Conscious",34,484,1,340,"Different_Path","Rectangle"
"355",1315,7,1,"Conscious",35,786,1,345,"Same_Path","Rectangle"
"356",1316,7,1,"Conscious",36,502,1,208,"Same_Path","Rectangle"
"357",1317,7,1,"Conscious",37,951,1,22,"Different_Path","Diamond"
"358",1318,7,1,"Conscious",38,515,1,85,"Same_Path","Diamond"
"359",1319,7,1,"Conscious",39,463,1,128,"Different_Path","Rectangle"
"360",1320,7,1,"Conscious",40,511,1,296,"Different_Path","Rectangle"
"361",1321,7,1,"Conscious",41,611,1,6,"Different_Path","Diamond"
"362",1322,7,1,"Conscious",42,572,1,16,"Different_Path","Rectangle"
"363",1323,7,1,"Conscious",43,669,1,61,"Different_Path","Diamond"
"364",1324,7,1,"Conscious",44,512,1,234,"Different_Path","Rectangle"
"365",1325,7,1,"Conscious",45,492,1,264,"Same_Path","Diamond"
"366",1326,7,1,"Conscious",46,621,1,234,"Different_Path","Diamond"
"367",1327,7,1,"Conscious",47,518,1,163,"Same_Path","Rectangle"
"368",1328,7,1,"Conscious",48,604,1,197,"Same_Path","Diamond"
"369",1329,7,1,"Conscious",49,650,1,107,"Same_Path","Diamond"
"370",1330,7,1,"Conscious",50,481,1,269,"Different_Path","Diamond"
"371",1331,7,1,"Conscious",51,463,1,69,"Same_Path","Rectangle"
"372",1332,7,1,"Conscious",52,520,1,248,"Same_Path","Rectangle"
"373",1333,7,1,"Conscious",53,542,1,67,"Different_Path","Diamond"
"374",1334,7,1,"Conscious",54,524,1,133,"Same_Path","Diamond"
"375",1335,7,1,"Conscious",55,410,1,226,"Different_Path","Rectangle"
"376",1336,7,1,"Conscious",56,641,1,281,"Different_Path","Diamond"
"377",1337,7,1,"Conscious",57,959,1,30,"Same_Path","Rectangle"
"378",1338,7,1,"Conscious",58,526,1,335,"Same_Path","Diamond"
"379",1339,7,1,"Conscious",59,452,1,280,"Different_Path","Rectangle"
"380",1340,7,1,"Conscious",60,453,1,176,"Different_Path","Rectangle"
"381",1341,7,1,"Conscious",61,486,1,157,"Different_Path","Rectangle"
"382",1342,7,1,"Conscious",62,516,1,161,"Different_Path","Diamond"
"383",1343,7,1,"Conscious",63,618,1,111,"Different_Path","Diamond"
"384",1344,7,1,"Conscious",64,547,1,184,"Same_Path","Diamond"
"385",1537,8,1,"Conscious",1,819,1,95,"Same_Path","Rectangle"
"386",1538,8,1,"Conscious",2,560,1,53,"Same_Path","Rectangle"
"387",1539,8,1,"Conscious",3,694,1,49,"Different_Path","Diamond"
"388",1540,8,1,"Conscious",4,679,1,313,"Different_Path","Rectangle"
"389",1541,8,1,"Conscious",5,757,1,209,"Same_Path","Rectangle"
"390",1542,8,1,"Conscious",6,699,1,198,"Same_Path","Diamond"
"391",1543,8,1,"Conscious",7,564,1,53,"Same_Path","Rectangle"
"392",1544,8,1,"Conscious",8,579,1,308,"Same_Path","Rectangle"
"393",1545,8,1,"Conscious",9,668,1,224,"Same_Path","Diamond"
"394",1546,8,1,"Conscious",10,655,1,127,"Different_Path","Diamond"
"395",1547,8,1,"Conscious",11,896,1,185,"Different_Path","Rectangle"
"396",1548,8,1,"Conscious",12,777,1,145,"Same_Path","Rectangle"
"397",1549,8,1,"Conscious",13,714,1,28,"Same_Path","Rectangle"
"398",1550,8,1,"Conscious",14,710,1,87,"Same_Path","Rectangle"
"399",1551,8,1,"Conscious",15,610,1,45,"Different_Path","Rectangle"
"400",1552,8,1,"Conscious",16,536,1,67,"Different_Path","Rectangle"
"401",1553,8,1,"Conscious",17,768,1,87,"Same_Path","Diamond"
"402",1554,8,1,"Conscious",18,754,1,151,"Different_Path","Diamond"
"403",1555,8,1,"Conscious",19,613,1,18,"Same_Path","Diamond"
"404",1556,8,1,"Conscious",20,734,1,325,"Same_Path","Diamond"
"405",1557,8,1,"Conscious",21,679,1,341,"Same_Path","Rectangle"
"406",1558,8,1,"Conscious",22,878,1,177,"Same_Path","Diamond"
"407",1559,8,1,"Conscious",23,660,1,177,"Different_Path","Rectangle"
"408",1560,8,1,"Conscious",24,717,1,122,"Same_Path","Diamond"
"409",1561,8,1,"Conscious",25,707,1,325,"Same_Path","Diamond"
"410",1562,8,1,"Conscious",26,751,1,133,"Different_Path","Rectangle"
"411",1563,8,1,"Conscious",27,587,1,41,"Different_Path","Rectangle"
"412",1564,8,1,"Conscious",28,606,1,281,"Same_Path","Diamond"
"413",1565,8,1,"Conscious",29,988,1,141,"Same_Path","Diamond"
"414",1566,8,1,"Conscious",30,600,1,88,"Different_Path","Rectangle"
"415",1567,8,1,"Conscious",31,767,1,146,"Different_Path","Diamond"
"416",1568,8,1,"Conscious",32,733,1,35,"Different_Path","Diamond"
"417",1569,8,1,"Conscious",33,790,1,48,"Different_Path","Diamond"
"418",1570,8,1,"Conscious",34,610,1,340,"Different_Path","Rectangle"
"419",1571,8,1,"Conscious",35,816,1,345,"Same_Path","Rectangle"
"420",1572,8,1,"Conscious",36,593,1,208,"Same_Path","Rectangle"
"422",1574,8,1,"Conscious",38,726,1,85,"Same_Path","Diamond"
"423",1575,8,1,"Conscious",39,796,1,128,"Different_Path","Rectangle"
"424",1576,8,1,"Conscious",40,1170,1,296,"Different_Path","Rectangle"
"425",1577,8,1,"Conscious",41,700,1,6,"Different_Path","Diamond"
"426",1578,8,1,"Conscious",42,788,1,16,"Different_Path","Rectangle"
"427",1579,8,1,"Conscious",43,1454,1,61,"Different_Path","Diamond"
"428",1580,8,1,"Conscious",44,647,1,234,"Different_Path","Rectangle"
"429",1581,8,1,"Conscious",45,765,1,264,"Same_Path","Diamond"
"430",1582,8,1,"Conscious",46,683,1,234,"Different_Path","Diamond"
"431",1583,8,1,"Conscious",47,681,1,163,"Same_Path","Rectangle"
"432",1584,8,1,"Conscious",48,560,1,197,"Same_Path","Diamond"
"433",1585,8,1,"Conscious",49,673,1,107,"Same_Path","Diamond"
"434",1586,8,1,"Conscious",50,453,1,269,"Different_Path","Diamond"
"435",1587,8,1,"Conscious",51,541,1,69,"Same_Path","Rectangle"
"436",1588,8,1,"Conscious",52,561,1,248,"Same_Path","Rectangle"
"437",1589,8,1,"Conscious",53,551,1,67,"Different_Path","Diamond"
"438",1590,8,1,"Conscious",54,595,1,133,"Same_Path","Diamond"
"439",1591,8,1,"Conscious",55,702,1,226,"Different_Path","Rectangle"
"440",1592,8,1,"Conscious",56,511,1,281,"Different_Path","Diamond"
"441",1593,8,1,"Conscious",57,603,1,30,"Same_Path","Rectangle"
"442",1594,8,1,"Conscious",58,801,1,335,"Same_Path","Diamond"
"443",1595,8,1,"Conscious",59,535,1,280,"Different_Path","Rectangle"
"444",1596,8,1,"Conscious",60,504,1,176,"Different_Path","Rectangle"
"445",1597,8,1,"Conscious",61,572,1,157,"Different_Path","Rectangle"
"446",1598,8,1,"Conscious",62,645,1,161,"Different_Path","Diamond"
"447",1599,8,1,"Conscious",63,627,1,111,"Different_Path","Diamond"
"448",1600,8,1,"Conscious",64,519,1,184,"Same_Path","Diamond"
"449",1793,9,1,"Conscious",1,659,1,95,"Same_Path","Rectangle"
"450",1794,9,1,"Conscious",2,2176,1,53,"Same_Path","Rectangle"
"451",1795,9,1,"Conscious",3,661,1,49,"Different_Path","Diamond"
"452",1796,9,1,"Conscious",4,590,1,313,"Different_Path","Rectangle"
"453",1797,9,1,"Conscious",5,485,1,209,"Same_Path","Rectangle"
"454",1798,9,1,"Conscious",6,617,1,198,"Same_Path","Diamond"
"455",1799,9,1,"Conscious",7,594,1,53,"Same_Path","Rectangle"
"456",1800,9,1,"Conscious",8,585,1,308,"Same_Path","Rectangle"
"457",1801,9,1,"Conscious",9,800,1,224,"Same_Path","Diamond"
"458",1802,9,1,"Conscious",10,525,1,127,"Different_Path","Diamond"
"459",1803,9,1,"Conscious",11,647,1,185,"Different_Path","Rectangle"
"460",1804,9,1,"Conscious",12,730,1,145,"Same_Path","Rectangle"
"461",1805,9,1,"Conscious",13,613,1,28,"Same_Path","Rectangle"
"462",1806,9,1,"Conscious",14,604,1,87,"Same_Path","Rectangle"
"463",1807,9,1,"Conscious",15,640,1,45,"Different_Path","Rectangle"
"464",1808,9,1,"Conscious",16,509,1,67,"Different_Path","Rectangle"
"465",1809,9,1,"Conscious",17,628,1,87,"Same_Path","Diamond"
"466",1810,9,1,"Conscious",18,844,1,151,"Different_Path","Diamond"
"467",1811,9,1,"Conscious",19,567,1,18,"Same_Path","Diamond"
"468",1812,9,1,"Conscious",20,514,1,325,"Same_Path","Diamond"
"469",1813,9,1,"Conscious",21,903,1,341,"Same_Path","Rectangle"
"470",1814,9,1,"Conscious",22,558,1,177,"Same_Path","Diamond"
"471",1815,9,1,"Conscious",23,556,1,177,"Different_Path","Rectangle"
"472",1816,9,1,"Conscious",24,625,1,122,"Same_Path","Diamond"
"473",1817,9,1,"Conscious",25,752,1,325,"Same_Path","Diamond"
"474",1818,9,1,"Conscious",26,591,1,133,"Different_Path","Rectangle"
"475",1819,9,1,"Conscious",27,493,1,41,"Different_Path","Rectangle"
"476",1820,9,1,"Conscious",28,542,1,281,"Same_Path","Diamond"
"477",1821,9,1,"Conscious",29,781,1,141,"Same_Path","Diamond"
"478",1822,9,1,"Conscious",30,702,1,88,"Different_Path","Rectangle"
"479",1823,9,1,"Conscious",31,806,1,146,"Different_Path","Diamond"
"480",1824,9,1,"Conscious",32,529,1,35,"Different_Path","Diamond"
"481",1825,9,1,"Conscious",33,676,1,48,"Different_Path","Diamond"
"482",1826,9,1,"Conscious",34,561,1,340,"Different_Path","Rectangle"
"483",1827,9,1,"Conscious",35,597,1,345,"Same_Path","Rectangle"
"484",1828,9,1,"Conscious",36,410,1,208,"Same_Path","Rectangle"
"485",1829,9,1,"Conscious",37,587,1,22,"Different_Path","Diamond"
"486",1830,9,1,"Conscious",38,539,1,85,"Same_Path","Diamond"
"487",1831,9,1,"Conscious",39,700,1,128,"Different_Path","Rectangle"
"488",1832,9,1,"Conscious",40,593,1,296,"Different_Path","Rectangle"
"489",1833,9,1,"Conscious",41,630,1,6,"Different_Path","Diamond"
"490",1834,9,1,"Conscious",42,518,1,16,"Different_Path","Rectangle"
"491",1835,9,1,"Conscious",43,547,1,61,"Different_Path","Diamond"
"492",1836,9,1,"Conscious",44,970,1,234,"Different_Path","Rectangle"
"493",1837,9,1,"Conscious",45,565,1,264,"Same_Path","Diamond"
"494",1838,9,1,"Conscious",46,529,1,234,"Different_Path","Diamond"
"495",1839,9,1,"Conscious",47,460,1,163,"Same_Path","Rectangle"
"496",1840,9,1,"Conscious",48,549,1,197,"Same_Path","Diamond"
"497",1841,9,1,"Conscious",49,600,1,107,"Same_Path","Diamond"
"498",1842,9,1,"Conscious",50,582,1,269,"Different_Path","Diamond"
"499",1843,9,1,"Conscious",51,597,1,69,"Same_Path","Rectangle"
"500",1844,9,1,"Conscious",52,570,1,248,"Same_Path","Rectangle"
"501",1845,9,1,"Conscious",53,485,1,67,"Different_Path","Diamond"
"502",1846,9,1,"Conscious",54,451,1,133,"Same_Path","Diamond"
"503",1847,9,1,"Conscious",55,622,1,226,"Different_Path","Rectangle"
"504",1848,9,1,"Conscious",56,463,1,281,"Different_Path","Diamond"
"505",1849,9,1,"Conscious",57,583,1,30,"Same_Path","Rectangle"
"506",1850,9,1,"Conscious",58,502,1,335,"Same_Path","Diamond"
"507",1851,9,1,"Conscious",59,469,1,280,"Different_Path","Rectangle"
"508",1852,9,1,"Conscious",60,436,1,176,"Different_Path","Rectangle"
"509",1853,9,1,"Conscious",61,392,1,157,"Different_Path","Rectangle"
"510",1854,9,1,"Conscious",62,477,1,161,"Different_Path","Diamond"
"511",1855,9,1,"Conscious",63,627,1,111,"Different_Path","Diamond"
"513",2049,10,1,"Conscious",1,551,1,95,"Same_Path","Rectangle"
"514",2050,10,1,"Conscious",2,546,1,53,"Same_Path","Rectangle"
"516",2052,10,1,"Conscious",4,600,1,313,"Different_Path","Rectangle"
"517",2053,10,1,"Conscious",5,590,1,209,"Same_Path","Rectangle"
"518",2054,10,1,"Conscious",6,541,1,198,"Same_Path","Diamond"
"519",2055,10,1,"Conscious",7,590,1,53,"Same_Path","Rectangle"
"520",2056,10,1,"Conscious",8,574,1,308,"Same_Path","Rectangle"
"521",2057,10,1,"Conscious",9,653,1,224,"Same_Path","Diamond"
"522",2058,10,1,"Conscious",10,742,1,127,"Different_Path","Diamond"
"523",2059,10,1,"Conscious",11,837,1,185,"Different_Path","Rectangle"
"524",2060,10,1,"Conscious",12,643,1,145,"Same_Path","Rectangle"
"525",2061,10,1,"Conscious",13,832,1,28,"Same_Path","Rectangle"
"526",2062,10,1,"Conscious",14,583,1,87,"Same_Path","Rectangle"
"527",2063,10,1,"Conscious",15,630,1,45,"Different_Path","Rectangle"
"528",2064,10,1,"Conscious",16,581,1,67,"Different_Path","Rectangle"
"529",2065,10,1,"Conscious",17,527,1,87,"Same_Path","Diamond"
"530",2066,10,1,"Conscious",18,666,1,151,"Different_Path","Diamond"
"531",2067,10,1,"Conscious",19,457,1,18,"Same_Path","Diamond"
"532",2068,10,1,"Conscious",20,491,1,325,"Same_Path","Diamond"
"533",2069,10,1,"Conscious",21,646,1,341,"Same_Path","Rectangle"
"534",2070,10,1,"Conscious",22,569,1,177,"Same_Path","Diamond"
"535",2071,10,1,"Conscious",23,548,1,177,"Different_Path","Rectangle"
"536",2072,10,1,"Conscious",24,580,1,122,"Same_Path","Diamond"
"537",2073,10,1,"Conscious",25,1533,1,325,"Same_Path","Diamond"
"538",2074,10,1,"Conscious",26,606,1,133,"Different_Path","Rectangle"
"539",2075,10,1,"Conscious",27,553,1,41,"Different_Path","Rectangle"
"540",2076,10,1,"Conscious",28,478,1,281,"Same_Path","Diamond"
"541",2077,10,1,"Conscious",29,932,1,141,"Same_Path","Diamond"
"542",2078,10,1,"Conscious",30,551,1,88,"Different_Path","Rectangle"
"543",2079,10,1,"Conscious",31,1030,1,146,"Different_Path","Diamond"
"544",2080,10,1,"Conscious",32,1285,1,35,"Different_Path","Diamond"
"545",2081,10,1,"Conscious",33,752,1,48,"Different_Path","Diamond"
"546",2082,10,1,"Conscious",34,549,1,340,"Different_Path","Rectangle"
"547",2083,10,1,"Conscious",35,661,1,345,"Same_Path","Rectangle"
"548",2084,10,1,"Conscious",36,524,1,208,"Same_Path","Rectangle"
"549",2085,10,1,"Conscious",37,591,1,22,"Different_Path","Diamond"
"550",2086,10,1,"Conscious",38,549,1,85,"Same_Path","Diamond"
"551",2087,10,1,"Conscious",39,740,1,128,"Different_Path","Rectangle"
"552",2088,10,1,"Conscious",40,1283,1,296,"Different_Path","Rectangle"
"553",2089,10,1,"Conscious",41,622,1,6,"Different_Path","Diamond"
"554",2090,10,1,"Conscious",42,533,1,16,"Different_Path","Rectangle"
"555",2091,10,1,"Conscious",43,575,1,61,"Different_Path","Diamond"
"556",2092,10,1,"Conscious",44,824,1,234,"Different_Path","Rectangle"
"557",2093,10,1,"Conscious",45,511,1,264,"Same_Path","Diamond"
"558",2094,10,1,"Conscious",46,476,1,234,"Different_Path","Diamond"
"559",2095,10,1,"Conscious",47,465,1,163,"Same_Path","Rectangle"
"560",2096,10,1,"Conscious",48,457,1,197,"Same_Path","Diamond"
"561",2097,10,1,"Conscious",49,466,1,107,"Same_Path","Diamond"
"562",2098,10,1,"Conscious",50,490,1,269,"Different_Path","Diamond"
"563",2099,10,1,"Conscious",51,437,1,69,"Same_Path","Rectangle"
"564",2100,10,1,"Conscious",52,706,1,248,"Same_Path","Rectangle"
"565",2101,10,1,"Conscious",53,737,1,67,"Different_Path","Diamond"
"566",2102,10,1,"Conscious",54,621,1,133,"Same_Path","Diamond"
"567",2103,10,1,"Conscious",55,582,1,226,"Different_Path","Rectangle"
"568",2104,10,1,"Conscious",56,517,1,281,"Different_Path","Diamond"
"569",2105,10,1,"Conscious",57,522,1,30,"Same_Path","Rectangle"
"570",2106,10,1,"Conscious",58,820,1,335,"Same_Path","Diamond"
"571",2107,10,1,"Conscious",59,1029,1,280,"Different_Path","Rectangle"
"572",2108,10,1,"Conscious",60,674,1,176,"Different_Path","Rectangle"
"573",2109,10,1,"Conscious",61,887,1,157,"Different_Path","Rectangle"
"574",2110,10,1,"Conscious",62,562,1,161,"Different_Path","Diamond"
"575",2111,10,1,"Conscious",63,798,1,111,"Different_Path","Diamond"
"576",2112,10,1,"Conscious",64,603,1,184,"Same_Path","Diamond"
"577",2305,11,1,"Conscious",1,599,1,95,"Same_Path","Rectangle"
"578",2306,11,1,"Conscious",2,648,1,53,"Same_Path","Rectangle"
"579",2307,11,1,"Conscious",3,579,1,49,"Different_Path","Diamond"
"580",2308,11,1,"Conscious",4,596,1,313,"Different_Path","Rectangle"
"581",2309,11,1,"Conscious",5,554,1,209,"Same_Path","Rectangle"
"582",2310,11,1,"Conscious",6,641,1,198,"Same_Path","Diamond"
"583",2311,11,1,"Conscious",7,646,1,53,"Same_Path","Rectangle"
"584",2312,11,1,"Conscious",8,641,1,308,"Same_Path","Rectangle"
"585",2313,11,1,"Conscious",9,655,1,224,"Same_Path","Diamond"
"586",2314,11,1,"Conscious",10,816,1,127,"Different_Path","Diamond"
"587",2315,11,1,"Conscious",11,665,1,185,"Different_Path","Rectangle"
"588",2316,11,1,"Conscious",12,528,1,145,"Same_Path","Rectangle"
"589",2317,11,1,"Conscious",13,441,1,28,"Same_Path","Rectangle"
"590",2318,11,1,"Conscious",14,463,1,87,"Same_Path","Rectangle"
"591",2319,11,1,"Conscious",15,406,1,45,"Different_Path","Rectangle"
"592",2320,11,1,"Conscious",16,394,1,67,"Different_Path","Rectangle"
"593",2321,11,1,"Conscious",17,535,1,87,"Same_Path","Diamond"
"594",2322,11,1,"Conscious",18,600,1,151,"Different_Path","Diamond"
"595",2323,11,1,"Conscious",19,437,1,18,"Same_Path","Diamond"
"596",2324,11,1,"Conscious",20,411,1,325,"Same_Path","Diamond"
"598",2326,11,1,"Conscious",22,603,1,177,"Same_Path","Diamond"
"599",2327,11,1,"Conscious",23,415,1,177,"Different_Path","Rectangle"
"601",2329,11,1,"Conscious",25,441,1,325,"Same_Path","Diamond"
"602",2330,11,1,"Conscious",26,462,1,133,"Different_Path","Rectangle"
"603",2331,11,1,"Conscious",27,552,1,41,"Different_Path","Rectangle"
"604",2332,11,1,"Conscious",28,487,1,281,"Same_Path","Diamond"
"605",2333,11,1,"Conscious",29,521,1,141,"Same_Path","Diamond"
"606",2334,11,1,"Conscious",30,518,1,88,"Different_Path","Rectangle"
"607",2335,11,1,"Conscious",31,523,1,146,"Different_Path","Diamond"
"608",2336,11,1,"Conscious",32,488,1,35,"Different_Path","Diamond"
"609",2337,11,1,"Conscious",33,564,1,48,"Different_Path","Diamond"
"610",2338,11,1,"Conscious",34,609,1,340,"Different_Path","Rectangle"
"611",2339,11,1,"Conscious",35,638,1,345,"Same_Path","Rectangle"
"612",2340,11,1,"Conscious",36,543,1,208,"Same_Path","Rectangle"
"613",2341,11,1,"Conscious",37,585,1,22,"Different_Path","Diamond"
"614",2342,11,1,"Conscious",38,472,1,85,"Same_Path","Diamond"
"615",2343,11,1,"Conscious",39,431,1,128,"Different_Path","Rectangle"
"616",2344,11,1,"Conscious",40,598,1,296,"Different_Path","Rectangle"
"617",2345,11,1,"Conscious",41,436,1,6,"Different_Path","Diamond"
"618",2346,11,1,"Conscious",42,577,1,16,"Different_Path","Rectangle"
"619",2347,11,1,"Conscious",43,490,1,61,"Different_Path","Diamond"
"620",2348,11,1,"Conscious",44,534,1,234,"Different_Path","Rectangle"
"621",2349,11,1,"Conscious",45,567,1,264,"Same_Path","Diamond"
"622",2350,11,1,"Conscious",46,578,1,234,"Different_Path","Diamond"
"623",2351,11,1,"Conscious",47,443,1,163,"Same_Path","Rectangle"
"624",2352,11,1,"Conscious",48,521,1,197,"Same_Path","Diamond"
"625",2353,11,1,"Conscious",49,574,1,107,"Same_Path","Diamond"
"626",2354,11,1,"Conscious",50,527,1,269,"Different_Path","Diamond"
"627",2355,11,1,"Conscious",51,499,1,69,"Same_Path","Rectangle"
"628",2356,11,1,"Conscious",52,452,1,248,"Same_Path","Rectangle"
"629",2357,11,1,"Conscious",53,853,1,67,"Different_Path","Diamond"
"630",2358,11,1,"Conscious",54,478,1,133,"Same_Path","Diamond"
"631",2359,11,1,"Conscious",55,532,1,226,"Different_Path","Rectangle"
"632",2360,11,1,"Conscious",56,511,1,281,"Different_Path","Diamond"
"633",2361,11,1,"Conscious",57,518,1,30,"Same_Path","Rectangle"
"634",2362,11,1,"Conscious",58,612,1,335,"Same_Path","Diamond"
"635",2363,11,1,"Conscious",59,533,1,280,"Different_Path","Rectangle"
"637",2365,11,1,"Conscious",61,781,1,157,"Different_Path","Rectangle"
"638",2366,11,1,"Conscious",62,639,1,161,"Different_Path","Diamond"
"639",2367,11,1,"Conscious",63,658,1,111,"Different_Path","Diamond"
"640",2368,11,1,"Conscious",64,531,1,184,"Same_Path","Diamond"
"641",2561,12,1,"Conscious",1,1478,1,95,"Same_Path","Rectangle"
"642",2562,12,1,"Conscious",2,867,1,53,"Same_Path","Rectangle"
"644",2564,12,1,"Conscious",4,1121,1,313,"Different_Path","Rectangle"
"645",2565,12,1,"Conscious",5,942,1,209,"Same_Path","Rectangle"
"646",2566,12,1,"Conscious",6,3143,1,198,"Same_Path","Diamond"
"647",2567,12,1,"Conscious",7,853,1,53,"Same_Path","Rectangle"
"648",2568,12,1,"Conscious",8,870,1,308,"Same_Path","Rectangle"
"651",2571,12,1,"Conscious",11,987,1,185,"Different_Path","Rectangle"
"652",2572,12,1,"Conscious",12,882,1,145,"Same_Path","Rectangle"
"653",2573,12,1,"Conscious",13,717,1,28,"Same_Path","Rectangle"
"654",2574,12,1,"Conscious",14,586,1,87,"Same_Path","Rectangle"
"655",2575,12,1,"Conscious",15,913,1,45,"Different_Path","Rectangle"
"656",2576,12,1,"Conscious",16,726,1,67,"Different_Path","Rectangle"
"657",2577,12,1,"Conscious",17,874,1,87,"Same_Path","Diamond"
"658",2578,12,1,"Conscious",18,671,1,151,"Different_Path","Diamond"
"659",2579,12,1,"Conscious",19,638,1,18,"Same_Path","Diamond"
"660",2580,12,1,"Conscious",20,875,1,325,"Same_Path","Diamond"
"661",2581,12,1,"Conscious",21,785,1,341,"Same_Path","Rectangle"
"662",2582,12,1,"Conscious",22,784,1,177,"Same_Path","Diamond"
"663",2583,12,1,"Conscious",23,783,1,177,"Different_Path","Rectangle"
"664",2584,12,1,"Conscious",24,758,1,122,"Same_Path","Diamond"
"665",2585,12,1,"Conscious",25,851,1,325,"Same_Path","Diamond"
"666",2586,12,1,"Conscious",26,687,1,133,"Different_Path","Rectangle"
"667",2587,12,1,"Conscious",27,538,1,41,"Different_Path","Rectangle"
"668",2588,12,1,"Conscious",28,564,1,281,"Same_Path","Diamond"
"669",2589,12,1,"Conscious",29,726,1,141,"Same_Path","Diamond"
"670",2590,12,1,"Conscious",30,586,1,88,"Different_Path","Rectangle"
"671",2591,12,1,"Conscious",31,817,1,146,"Different_Path","Diamond"
"672",2592,12,1,"Conscious",32,658,1,35,"Different_Path","Diamond"
"673",2593,12,1,"Conscious",33,531,1,48,"Different_Path","Diamond"
"674",2594,12,1,"Conscious",34,535,1,340,"Different_Path","Rectangle"
"675",2595,12,1,"Conscious",35,696,1,345,"Same_Path","Rectangle"
"676",2596,12,1,"Conscious",36,553,1,208,"Same_Path","Rectangle"
"677",2597,12,1,"Conscious",37,502,1,22,"Different_Path","Diamond"
"678",2598,12,1,"Conscious",38,472,1,85,"Same_Path","Diamond"
"679",2599,12,1,"Conscious",39,647,1,128,"Different_Path","Rectangle"
"680",2600,12,1,"Conscious",40,634,1,296,"Different_Path","Rectangle"
"681",2601,12,1,"Conscious",41,488,1,6,"Different_Path","Diamond"
"682",2602,12,1,"Conscious",42,571,1,16,"Different_Path","Rectangle"
"683",2603,12,1,"Conscious",43,614,1,61,"Different_Path","Diamond"
"684",2604,12,1,"Conscious",44,495,1,234,"Different_Path","Rectangle"
"685",2605,12,1,"Conscious",45,521,1,264,"Same_Path","Diamond"
"686",2606,12,1,"Conscious",46,758,1,234,"Different_Path","Diamond"
"687",2607,12,1,"Conscious",47,1131,1,163,"Same_Path","Rectangle"
"688",2608,12,1,"Conscious",48,1132,1,197,"Same_Path","Diamond"
"689",2609,12,1,"Conscious",49,709,1,107,"Same_Path","Diamond"
"690",2610,12,1,"Conscious",50,667,1,269,"Different_Path","Diamond"
"691",2611,12,1,"Conscious",51,545,1,69,"Same_Path","Rectangle"
"692",2612,12,1,"Conscious",52,489,1,248,"Same_Path","Rectangle"
"693",2613,12,1,"Conscious",53,476,1,67,"Different_Path","Diamond"
"694",2614,12,1,"Conscious",54,762,1,133,"Same_Path","Diamond"
"695",2615,12,1,"Conscious",55,509,1,226,"Different_Path","Rectangle"
"696",2616,12,1,"Conscious",56,594,1,281,"Different_Path","Diamond"
"697",2617,12,1,"Conscious",57,511,1,30,"Same_Path","Rectangle"
"698",2618,12,1,"Conscious",58,791,1,335,"Same_Path","Diamond"
"699",2619,12,1,"Conscious",59,526,1,280,"Different_Path","Rectangle"
"700",2620,12,1,"Conscious",60,481,1,176,"Different_Path","Rectangle"
"701",2621,12,1,"Conscious",61,390,1,157,"Different_Path","Rectangle"
"702",2622,12,1,"Conscious",62,446,1,161,"Different_Path","Diamond"
"703",2623,12,1,"Conscious",63,425,1,111,"Different_Path","Diamond"
"704",2624,12,1,"Conscious",64,537,1,184,"Same_Path","Diamond"
"705",2817,13,1,"Conscious",1,466,1,95,"Same_Path","Rectangle"
"706",2818,13,1,"Conscious",2,597,1,53,"Same_Path","Rectangle"
"707",2819,13,1,"Conscious",3,561,1,49,"Different_Path","Diamond"
"708",2820,13,1,"Conscious",4,546,1,313,"Different_Path","Rectangle"
"709",2821,13,1,"Conscious",5,601,1,209,"Same_Path","Rectangle"
"710",2822,13,1,"Conscious",6,542,1,198,"Same_Path","Diamond"
"711",2823,13,1,"Conscious",7,822,1,53,"Same_Path","Rectangle"
"712",2824,13,1,"Conscious",8,871,1,308,"Same_Path","Rectangle"
"713",2825,13,1,"Conscious",9,1638,1,224,"Same_Path","Diamond"
"714",2826,13,1,"Conscious",10,907,1,127,"Different_Path","Diamond"
"715",2827,13,1,"Conscious",11,616,1,185,"Different_Path","Rectangle"
"716",2828,13,1,"Conscious",12,529,1,145,"Same_Path","Rectangle"
"717",2829,13,1,"Conscious",13,709,1,28,"Same_Path","Rectangle"
"718",2830,13,1,"Conscious",14,604,1,87,"Same_Path","Rectangle"
"719",2831,13,1,"Conscious",15,519,1,45,"Different_Path","Rectangle"
"720",2832,13,1,"Conscious",16,572,1,67,"Different_Path","Rectangle"
"721",2833,13,1,"Conscious",17,654,1,87,"Same_Path","Diamond"
"722",2834,13,1,"Conscious",18,623,1,151,"Different_Path","Diamond"
"723",2835,13,1,"Conscious",19,454,1,18,"Same_Path","Diamond"
"724",2836,13,1,"Conscious",20,511,1,325,"Same_Path","Diamond"
"725",2837,13,1,"Conscious",21,597,1,341,"Same_Path","Rectangle"
"726",2838,13,1,"Conscious",22,810,1,177,"Same_Path","Diamond"
"727",2839,13,1,"Conscious",23,509,1,177,"Different_Path","Rectangle"
"728",2840,13,1,"Conscious",24,612,1,122,"Same_Path","Diamond"
"729",2841,13,1,"Conscious",25,574,1,325,"Same_Path","Diamond"
"731",2843,13,1,"Conscious",27,742,1,41,"Different_Path","Rectangle"
"732",2844,13,1,"Conscious",28,527,1,281,"Same_Path","Diamond"
"733",2845,13,1,"Conscious",29,521,1,141,"Same_Path","Diamond"
"734",2846,13,1,"Conscious",30,516,1,88,"Different_Path","Rectangle"
"735",2847,13,1,"Conscious",31,569,1,146,"Different_Path","Diamond"
"736",2848,13,1,"Conscious",32,692,1,35,"Different_Path","Diamond"
"737",2849,13,1,"Conscious",33,606,1,48,"Different_Path","Diamond"
"738",2850,13,1,"Conscious",34,537,1,340,"Different_Path","Rectangle"
"739",2851,13,1,"Conscious",35,650,1,345,"Same_Path","Rectangle"
"740",2852,13,1,"Conscious",36,461,1,208,"Same_Path","Rectangle"
"741",2853,13,1,"Conscious",37,597,1,22,"Different_Path","Diamond"
"742",2854,13,1,"Conscious",38,450,1,85,"Same_Path","Diamond"
"743",2855,13,1,"Conscious",39,829,1,128,"Different_Path","Rectangle"
"744",2856,13,1,"Conscious",40,917,1,296,"Different_Path","Rectangle"
"745",2857,13,1,"Conscious",41,602,1,6,"Different_Path","Diamond"
"746",2858,13,1,"Conscious",42,701,1,16,"Different_Path","Rectangle"
"747",2859,13,1,"Conscious",43,590,1,61,"Different_Path","Diamond"
"748",2860,13,1,"Conscious",44,845,1,234,"Different_Path","Rectangle"
"749",2861,13,1,"Conscious",45,569,1,264,"Same_Path","Diamond"
"750",2862,13,1,"Conscious",46,468,1,234,"Different_Path","Diamond"
"751",2863,13,1,"Conscious",47,643,1,163,"Same_Path","Rectangle"
"752",2864,13,1,"Conscious",48,663,1,197,"Same_Path","Diamond"
"753",2865,13,1,"Conscious",49,598,1,107,"Same_Path","Diamond"
"754",2866,13,1,"Conscious",50,563,1,269,"Different_Path","Diamond"
"755",2867,13,1,"Conscious",51,574,1,69,"Same_Path","Rectangle"
"756",2868,13,1,"Conscious",52,455,1,248,"Same_Path","Rectangle"
"757",2869,13,1,"Conscious",53,537,1,67,"Different_Path","Diamond"
"758",2870,13,1,"Conscious",54,636,1,133,"Same_Path","Diamond"
"759",2871,13,1,"Conscious",55,609,1,226,"Different_Path","Rectangle"
"760",2872,13,1,"Conscious",56,645,1,281,"Different_Path","Diamond"
"761",2873,13,1,"Conscious",57,568,1,30,"Same_Path","Rectangle"
"762",2874,13,1,"Conscious",58,643,1,335,"Same_Path","Diamond"
"763",2875,13,1,"Conscious",59,582,1,280,"Different_Path","Rectangle"
"764",2876,13,1,"Conscious",60,685,1,176,"Different_Path","Rectangle"
"765",2877,13,1,"Conscious",61,471,1,157,"Different_Path","Rectangle"
"766",2878,13,1,"Conscious",62,468,1,161,"Different_Path","Diamond"
"767",2879,13,1,"Conscious",63,635,1,111,"Different_Path","Diamond"
"768",2880,13,1,"Conscious",64,505,1,184,"Same_Path","Diamond"
"769",3073,14,1,"Conscious",1,529,1,236,"Different_Path","Diamond"
"770",3074,14,1,"Conscious",2,597,1,91,"Same_Path","Rectangle"
"771",3075,14,1,"Conscious",3,474,1,35,"Same_Path","Diamond"
"772",3076,14,1,"Conscious",4,423,1,2,"Different_Path","Rectangle"
"773",3077,14,1,"Conscious",5,625,1,172,"Same_Path","Diamond"
"774",3078,14,1,"Conscious",6,512,1,216,"Different_Path","Diamond"
"775",3079,14,1,"Conscious",7,415,1,91,"Same_Path","Rectangle"
"777",3081,14,1,"Conscious",9,604,1,182,"Different_Path","Rectangle"
"778",3082,14,1,"Conscious",10,593,1,268,"Different_Path","Rectangle"
"779",3083,14,1,"Conscious",11,574,1,60,"Same_Path","Diamond"
"780",3084,14,1,"Conscious",12,512,1,6,"Different_Path","Rectangle"
"781",3085,14,1,"Conscious",13,485,1,75,"Same_Path","Rectangle"
"782",3086,14,1,"Conscious",14,488,1,103,"Same_Path","Rectangle"
"783",3087,14,1,"Conscious",15,692,1,108,"Different_Path","Diamond"
"784",3088,14,1,"Conscious",16,679,1,240,"Different_Path","Diamond"
"785",3089,14,1,"Conscious",17,572,1,82,"Same_Path","Diamond"
"787",3091,14,1,"Conscious",19,669,1,78,"Same_Path","Diamond"
"788",3092,14,1,"Conscious",20,588,1,34,"Same_Path","Rectangle"
"789",3093,14,1,"Conscious",21,843,1,285,"Same_Path","Diamond"
"790",3094,14,1,"Conscious",22,638,1,328,"Same_Path","Rectangle"
"791",3095,14,1,"Conscious",23,636,1,244,"Different_Path","Rectangle"
"792",3096,14,1,"Conscious",24,553,1,151,"Same_Path","Diamond"
"793",3097,14,1,"Conscious",25,544,1,302,"Same_Path","Rectangle"
"794",3098,14,1,"Conscious",26,623,1,38,"Same_Path","Rectangle"
"795",3099,14,1,"Conscious",27,574,1,223,"Same_Path","Rectangle"
"796",3100,14,1,"Conscious",28,586,1,178,"Different_Path","Diamond"
"799",3103,14,1,"Conscious",31,642,1,7,"Same_Path","Rectangle"
"800",3104,14,1,"Conscious",32,591,1,73,"Different_Path","Diamond"
"801",3105,14,1,"Conscious",33,534,1,80,"Different_Path","Rectangle"
"802",3106,14,1,"Conscious",34,592,1,222,"Same_Path","Diamond"
"803",3107,14,1,"Conscious",35,583,1,136,"Same_Path","Rectangle"
"804",3108,14,1,"Conscious",36,602,1,178,"Different_Path","Diamond"
"805",3109,14,1,"Conscious",37,485,1,225,"Different_Path","Diamond"
"806",3110,14,1,"Conscious",38,521,1,260,"Different_Path","Diamond"
"807",3111,14,1,"Conscious",39,582,1,247,"Different_Path","Rectangle"
"808",3112,14,1,"Conscious",40,741,1,161,"Different_Path","Diamond"
"809",3113,14,1,"Conscious",41,670,1,135,"Same_Path","Diamond"
"810",3114,14,1,"Conscious",42,638,1,123,"Same_Path","Rectangle"
"811",3115,14,1,"Conscious",43,587,1,219,"Different_Path","Diamond"
"812",3116,14,1,"Conscious",44,522,1,140,"Different_Path","Rectangle"
"813",3117,14,1,"Conscious",45,567,1,306,"Different_Path","Rectangle"
"814",3118,14,1,"Conscious",46,506,1,60,"Different_Path","Rectangle"
"815",3119,14,1,"Conscious",47,466,1,215,"Different_Path","Rectangle"
"816",3120,14,1,"Conscious",48,481,1,283,"Same_Path","Rectangle"
"817",3121,14,1,"Conscious",49,654,1,186,"Same_Path","Diamond"
"818",3122,14,1,"Conscious",50,512,1,226,"Same_Path","Diamond"
"819",3123,14,1,"Conscious",51,503,1,193,"Different_Path","Diamond"
"820",3124,14,1,"Conscious",52,592,1,166,"Same_Path","Rectangle"
"821",3125,14,1,"Conscious",53,624,1,70,"Different_Path","Diamond"
"822",3126,14,1,"Conscious",54,433,1,127,"Same_Path","Diamond"
"823",3127,14,1,"Conscious",55,328,1,199,"Different_Path","Diamond"
"824",3128,14,1,"Conscious",56,531,1,158,"Different_Path","Rectangle"
"825",3129,14,1,"Conscious",57,687,1,261,"Different_Path","Diamond"
"826",3130,14,1,"Conscious",58,450,1,237,"Same_Path","Rectangle"
"827",3131,14,1,"Conscious",59,659,1,150,"Different_Path","Diamond"
"828",3132,14,1,"Conscious",60,555,1,280,"Same_Path","Diamond"
"829",3133,14,1,"Conscious",61,404,1,130,"Same_Path","Diamond"
"830",3134,14,1,"Conscious",62,415,1,328,"Same_Path","Diamond"
"831",3135,14,1,"Conscious",63,536,1,82,"Different_Path","Rectangle"
"832",3136,14,1,"Conscious",64,442,1,103,"Different_Path","Rectangle"
"833",3329,15,1,"Conscious",1,501,1,218,"Different_Path","Diamond"
"834",3330,15,1,"Conscious",2,452,1,158,"Same_Path","Rectangle"
"835",3331,15,1,"Conscious",3,534,1,43,"Same_Path","Diamond"
"836",3332,15,1,"Conscious",4,527,1,209,"Different_Path","Rectangle"
"837",3333,15,1,"Conscious",5,410,1,156,"Same_Path","Rectangle"
"838",3334,15,1,"Conscious",6,403,1,337,"Same_Path","Diamond"
"839",3335,15,1,"Conscious",7,583,1,325,"Same_Path","Rectangle"
"840",3336,15,1,"Conscious",8,510,1,66,"Same_Path","Diamond"
"841",3337,15,1,"Conscious",9,405,1,282,"Same_Path","Rectangle"
"842",3338,15,1,"Conscious",10,521,1,64,"Different_Path","Diamond"
"843",3339,15,1,"Conscious",11,486,1,187,"Different_Path","Rectangle"
"844",3340,15,1,"Conscious",12,433,1,61,"Different_Path","Diamond"
"845",3341,15,1,"Conscious",13,423,1,204,"Same_Path","Diamond"
"846",3342,15,1,"Conscious",14,375,1,348,"Same_Path","Rectangle"
"847",3343,15,1,"Conscious",15,519,1,152,"Different_Path","Diamond"
"848",3344,15,1,"Conscious",16,501,1,236,"Different_Path","Diamond"
"849",3345,15,1,"Conscious",17,358,1,91,"Different_Path","Rectangle"
"850",3346,15,1,"Conscious",18,387,1,346,"Different_Path","Diamond"
"851",3347,15,1,"Conscious",19,467,1,325,"Different_Path","Diamond"
"852",3348,15,1,"Conscious",20,483,1,297,"Different_Path","Diamond"
"853",3349,15,1,"Conscious",21,493,1,1,"Different_Path","Diamond"
"854",3350,15,1,"Conscious",22,398,1,299,"Different_Path","Rectangle"
"855",3351,15,1,"Conscious",23,428,1,246,"Different_Path","Diamond"
"856",3352,15,1,"Conscious",24,443,1,208,"Different_Path","Diamond"
"857",3353,15,1,"Conscious",25,374,1,125,"Same_Path","Rectangle"
"858",3354,15,1,"Conscious",26,440,1,173,"Same_Path","Diamond"
"859",3355,15,1,"Conscious",27,377,1,297,"Same_Path","Rectangle"
"860",3356,15,1,"Conscious",28,474,1,259,"Different_Path","Diamond"
"861",3357,15,1,"Conscious",29,400,1,232,"Same_Path","Rectangle"
"863",3359,15,1,"Conscious",31,556,1,172,"Different_Path","Rectangle"
"864",3360,15,1,"Conscious",32,626,1,234,"Different_Path","Rectangle"
"865",3361,15,1,"Conscious",33,409,1,126,"Different_Path","Rectangle"
"866",3362,15,1,"Conscious",34,538,1,1,"Different_Path","Diamond"
"867",3363,15,1,"Conscious",35,409,1,163,"Same_Path","Rectangle"
"868",3364,15,1,"Conscious",36,349,1,68,"Same_Path","Rectangle"
"869",3365,15,1,"Conscious",37,444,1,290,"Same_Path","Rectangle"
"870",3366,15,1,"Conscious",38,504,1,219,"Different_Path","Rectangle"
"871",3367,15,1,"Conscious",39,495,1,175,"Same_Path","Diamond"
"872",3368,15,1,"Conscious",40,482,1,95,"Same_Path","Rectangle"
"873",3369,15,1,"Conscious",41,621,1,183,"Same_Path","Diamond"
"874",3370,15,1,"Conscious",42,493,1,307,"Same_Path","Diamond"
"875",3371,15,1,"Conscious",43,500,1,258,"Same_Path","Rectangle"
"876",3372,15,1,"Conscious",44,557,1,289,"Different_Path","Rectangle"
"877",3373,15,1,"Conscious",45,522,1,21,"Different_Path","Rectangle"
"878",3374,15,1,"Conscious",46,574,1,277,"Same_Path","Diamond"
"879",3375,15,1,"Conscious",47,671,1,201,"Different_Path","Diamond"
"880",3376,15,1,"Conscious",48,604,1,10,"Same_Path","Diamond"
"881",3377,15,1,"Conscious",49,600,1,304,"Different_Path","Rectangle"
"882",3378,15,1,"Conscious",50,655,1,355,"Different_Path","Rectangle"
"883",3379,15,1,"Conscious",51,504,1,356,"Same_Path","Rectangle"
"884",3380,15,1,"Conscious",52,663,1,95,"Different_Path","Diamond"
"885",3381,15,1,"Conscious",53,486,1,87,"Same_Path","Rectangle"
"886",3382,15,1,"Conscious",54,572,1,173,"Different_Path","Diamond"
"887",3383,15,1,"Conscious",55,687,1,360,"Different_Path","Diamond"
"888",3384,15,1,"Conscious",56,674,1,51,"Same_Path","Diamond"
"889",3385,15,1,"Conscious",57,559,1,12,"Same_Path","Rectangle"
"890",3386,15,1,"Conscious",58,565,1,237,"Same_Path","Diamond"
"891",3387,15,1,"Conscious",59,512,1,32,"Different_Path","Rectangle"
"892",3388,15,1,"Conscious",60,621,1,335,"Same_Path","Rectangle"
"893",3389,15,1,"Conscious",61,510,1,92,"Different_Path","Rectangle"
"894",3390,15,1,"Conscious",62,524,1,185,"Same_Path","Diamond"
"895",3391,15,1,"Conscious",63,471,1,167,"Same_Path","Diamond"
"896",3392,15,1,"Conscious",64,517,1,177,"Different_Path","Diamond"
"898",3586,16,1,"Conscious",2,476,1,25,"Same_Path","Rectangle"
"899",3587,16,1,"Conscious",3,634,1,253,"Same_Path","Diamond"
"900",3588,16,1,"Conscious",4,735,1,57,"Different_Path","Diamond"
"901",3589,16,1,"Conscious",5,1384,1,94,"Different_Path","Diamond"
"902",3590,16,1,"Conscious",6,455,1,67,"Same_Path","Rectangle"
"903",3591,16,1,"Conscious",7,561,1,118,"Different_Path","Rectangle"
"904",3592,16,1,"Conscious",8,788,1,43,"Different_Path","Diamond"
"905",3593,16,1,"Conscious",9,683,1,220,"Different_Path","Rectangle"
"906",3594,16,1,"Conscious",10,558,1,120,"Same_Path","Rectangle"
"907",3595,16,1,"Conscious",11,730,1,261,"Different_Path","Diamond"
"908",3596,16,1,"Conscious",12,675,1,348,"Different_Path","Rectangle"
"909",3597,16,1,"Conscious",13,776,1,22,"Same_Path","Diamond"
"911",3599,16,1,"Conscious",15,550,1,254,"Different_Path","Rectangle"
"912",3600,16,1,"Conscious",16,781,1,240,"Different_Path","Rectangle"
"913",3601,16,1,"Conscious",17,589,1,272,"Different_Path","Rectangle"
"914",3602,16,1,"Conscious",18,508,1,223,"Same_Path","Diamond"
"915",3603,16,1,"Conscious",19,851,1,182,"Different_Path","Rectangle"
"916",3604,16,1,"Conscious",20,765,1,312,"Different_Path","Diamond"
"917",3605,16,1,"Conscious",21,742,1,324,"Different_Path","Rectangle"
"918",3606,16,1,"Conscious",22,957,1,347,"Same_Path","Rectangle"
"919",3607,16,1,"Conscious",23,738,1,333,"Different_Path","Diamond"
"920",3608,16,1,"Conscious",24,873,1,49,"Different_Path","Rectangle"
"922",3610,16,1,"Conscious",26,559,1,1,"Different_Path","Diamond"
"923",3611,16,1,"Conscious",27,677,1,244,"Same_Path","Diamond"
"924",3612,16,1,"Conscious",28,746,1,186,"Different_Path","Diamond"
"925",3613,16,1,"Conscious",29,593,1,135,"Same_Path","Rectangle"
"926",3614,16,1,"Conscious",30,518,1,93,"Different_Path","Diamond"
"927",3615,16,1,"Conscious",31,604,1,319,"Different_Path","Rectangle"
"928",3616,16,1,"Conscious",32,743,1,212,"Same_Path","Diamond"
"929",3617,16,1,"Conscious",33,1150,1,303,"Same_Path","Diamond"
"930",3618,16,1,"Conscious",34,1011,1,356,"Same_Path","Diamond"
"931",3619,16,1,"Conscious",35,702,1,10,"Same_Path","Rectangle"
"932",3620,16,1,"Conscious",36,805,1,26,"Different_Path","Diamond"
"933",3621,16,1,"Conscious",37,472,1,349,"Different_Path","Diamond"
"934",3622,16,1,"Conscious",38,590,1,43,"Same_Path","Diamond"
"935",3623,16,1,"Conscious",39,664,1,302,"Same_Path","Diamond"
"936",3624,16,1,"Conscious",40,628,1,284,"Same_Path","Diamond"
"937",3625,16,1,"Conscious",41,604,1,142,"Same_Path","Diamond"
"938",3626,16,1,"Conscious",42,655,1,339,"Same_Path","Rectangle"
"939",3627,16,1,"Conscious",43,768,1,286,"Different_Path","Diamond"
"940",3628,16,1,"Conscious",44,883,1,110,"Same_Path","Rectangle"
"941",3629,16,1,"Conscious",45,503,1,40,"Same_Path","Diamond"
"942",3630,16,1,"Conscious",46,582,1,178,"Same_Path","Rectangle"
"943",3631,16,1,"Conscious",47,749,1,89,"Different_Path","Diamond"
"944",3632,16,1,"Conscious",48,860,1,114,"Same_Path","Rectangle"
"945",3633,16,1,"Conscious",49,636,1,129,"Same_Path","Rectangle"
"946",3634,16,1,"Conscious",50,609,1,228,"Same_Path","Diamond"
"947",3635,16,1,"Conscious",51,1396,1,37,"Different_Path","Diamond"
"948",3636,16,1,"Conscious",52,545,1,300,"Same_Path","Rectangle"
"949",3637,16,1,"Conscious",53,800,1,183,"Same_Path","Diamond"
"950",3638,16,1,"Conscious",54,571,1,113,"Same_Path","Rectangle"
"951",3639,16,1,"Conscious",55,542,1,311,"Same_Path","Rectangle"
"952",3640,16,1,"Conscious",56,878,1,129,"Different_Path","Diamond"
"953",3641,16,1,"Conscious",57,707,1,325,"Same_Path","Rectangle"
"954",3642,16,1,"Conscious",58,680,1,88,"Same_Path","Rectangle"
"955",3643,16,1,"Conscious",59,573,1,308,"Different_Path","Diamond"
"956",3644,16,1,"Conscious",60,583,1,61,"Different_Path","Rectangle"
"957",3645,16,1,"Conscious",61,718,1,46,"Different_Path","Diamond"
"958",3646,16,1,"Conscious",62,555,1,107,"Different_Path","Rectangle"
"959",3647,16,1,"Conscious",63,657,1,332,"Different_Path","Rectangle"
"960",3648,16,1,"Conscious",64,954,1,8,"Same_Path","Rectangle"
"961",3841,17,1,"Conscious",1,538,1,122,"Different_Path","Rectangle"
"962",3842,17,1,"Conscious",2,961,1,144,"Same_Path","Rectangle"
"963",3843,17,1,"Conscious",3,790,1,168,"Different_Path","Diamond"
"964",3844,17,1,"Conscious",4,683,1,62,"Same_Path","Rectangle"
"965",3845,17,1,"Conscious",5,768,1,291,"Different_Path","Diamond"
"966",3846,17,1,"Conscious",6,812,1,35,"Same_Path","Diamond"
"967",3847,17,1,"Conscious",7,661,1,282,"Same_Path","Diamond"
"968",3848,17,1,"Conscious",8,468,1,28,"Different_Path","Rectangle"
"969",3849,17,1,"Conscious",9,659,1,358,"Different_Path","Diamond"
"970",3850,17,1,"Conscious",10,636,1,337,"Same_Path","Rectangle"
"971",3851,17,1,"Conscious",11,712,1,235,"Different_Path","Diamond"
"972",3852,17,1,"Conscious",12,661,1,350,"Same_Path","Diamond"
"973",3853,17,1,"Conscious",13,468,1,206,"Different_Path","Diamond"
"974",3854,17,1,"Conscious",14,531,1,13,"Different_Path","Diamond"
"975",3855,17,1,"Conscious",15,445,1,22,"Same_Path","Diamond"
"976",3856,17,1,"Conscious",16,688,1,26,"Different_Path","Diamond"
"977",3857,17,1,"Conscious",17,425,1,143,"Different_Path","Rectangle"
"978",3858,17,1,"Conscious",18,657,1,75,"Different_Path","Diamond"
"979",3859,17,1,"Conscious",19,362,1,82,"Different_Path","Rectangle"
"980",3860,17,1,"Conscious",20,445,1,30,"Same_Path","Diamond"
"981",3861,17,1,"Conscious",21,569,1,225,"Same_Path","Rectangle"
"982",3862,17,1,"Conscious",22,508,1,156,"Same_Path","Rectangle"
"983",3863,17,1,"Conscious",23,603,1,120,"Different_Path","Diamond"
"984",3864,17,1,"Conscious",24,678,1,119,"Same_Path","Diamond"
"985",3865,17,1,"Conscious",25,620,1,333,"Same_Path","Diamond"
"986",3866,17,1,"Conscious",26,749,1,219,"Same_Path","Diamond"
"987",3867,17,1,"Conscious",27,484,1,354,"Different_Path","Diamond"
"988",3868,17,1,"Conscious",28,735,1,296,"Same_Path","Rectangle"
"989",3869,17,1,"Conscious",29,520,1,42,"Same_Path","Rectangle"
"990",3870,17,1,"Conscious",30,582,1,329,"Same_Path","Diamond"
"991",3871,17,1,"Conscious",31,565,1,160,"Same_Path","Rectangle"
"992",3872,17,1,"Conscious",32,793,1,39,"Same_Path","Diamond"
"993",3873,17,1,"Conscious",33,549,1,7,"Same_Path","Diamond"
"994",3874,17,1,"Conscious",34,675,1,276,"Different_Path","Rectangle"
"995",3875,17,1,"Conscious",35,585,1,120,"Different_Path","Rectangle"
"996",3876,17,1,"Conscious",36,503,1,67,"Different_Path","Rectangle"
"997",3877,17,1,"Conscious",37,453,1,114,"Different_Path","Rectangle"
"998",3878,17,1,"Conscious",38,710,1,256,"Different_Path","Rectangle"
"999",3879,17,1,"Conscious",39,819,1,137,"Same_Path","Rectangle"
"1000",3880,17,1,"Conscious",40,372,1,69,"Same_Path","Rectangle"
"1001",3881,17,1,"Conscious",41,504,1,328,"Different_Path","Rectangle"
"1002",3882,17,1,"Conscious",42,543,1,23,"Same_Path","Rectangle"
"1003",3883,17,1,"Conscious",43,486,1,10,"Different_Path","Rectangle"
"1004",3884,17,1,"Conscious",44,547,1,60,"Same_Path","Diamond"
"1005",3885,17,1,"Conscious",45,441,1,14,"Different_Path","Diamond"
"1006",3886,17,1,"Conscious",46,500,1,40,"Different_Path","Rectangle"
"1007",3887,17,1,"Conscious",47,508,1,317,"Different_Path","Diamond"
"1008",3888,17,1,"Conscious",48,571,1,105,"Same_Path","Diamond"
"1009",3889,17,1,"Conscious",49,652,1,239,"Different_Path","Rectangle"
"1010",3890,17,1,"Conscious",50,645,1,130,"Same_Path","Rectangle"
"1011",3891,17,1,"Conscious",51,665,1,267,"Different_Path","Rectangle"
"1012",3892,17,1,"Conscious",52,664,1,14,"Different_Path","Diamond"
"1013",3893,17,1,"Conscious",53,767,1,283,"Same_Path","Rectangle"
"1014",3894,17,1,"Conscious",54,578,1,101,"Same_Path","Rectangle"
"1015",3895,17,1,"Conscious",55,587,1,105,"Same_Path","Diamond"
"1016",3896,17,1,"Conscious",56,675,1,181,"Same_Path","Diamond"
"1017",3897,17,1,"Conscious",57,720,1,142,"Different_Path","Rectangle"
"1018",3898,17,1,"Conscious",58,803,1,255,"Same_Path","Rectangle"
"1019",3899,17,1,"Conscious",59,582,1,77,"Different_Path","Diamond"
"1020",3900,17,1,"Conscious",60,710,1,243,"Same_Path","Rectangle"
"1021",3901,17,1,"Conscious",61,643,1,329,"Same_Path","Diamond"
"1022",3902,17,1,"Conscious",62,558,1,41,"Different_Path","Diamond"
"1023",3903,17,1,"Conscious",63,529,1,272,"Different_Path","Rectangle"
"1024",3904,17,1,"Conscious",64,707,1,106,"Different_Path","Diamond"
"1025",4097,18,1,"Conscious",1,1074,1,95,"Same_Path","Rectangle"
"1026",4098,18,1,"Conscious",2,892,1,53,"Same_Path","Rectangle"
"1028",4100,18,1,"Conscious",4,681,1,313,"Different_Path","Rectangle"
"1029",4101,18,1,"Conscious",5,662,1,209,"Same_Path","Rectangle"
"1031",4103,18,1,"Conscious",7,760,1,53,"Same_Path","Rectangle"
"1032",4104,18,1,"Conscious",8,638,1,308,"Same_Path","Rectangle"
"1035",4107,18,1,"Conscious",11,869,1,185,"Different_Path","Rectangle"
"1036",4108,18,1,"Conscious",12,636,1,145,"Same_Path","Rectangle"
"1037",4109,18,1,"Conscious",13,489,1,28,"Same_Path","Rectangle"
"1038",4110,18,1,"Conscious",14,405,1,87,"Same_Path","Rectangle"
"1039",4111,18,1,"Conscious",15,504,1,45,"Different_Path","Rectangle"
"1040",4112,18,1,"Conscious",16,599,1,67,"Different_Path","Rectangle"
"1041",4113,18,1,"Conscious",17,821,1,87,"Same_Path","Diamond"
"1042",4114,18,1,"Conscious",18,1372,1,151,"Different_Path","Diamond"
"1045",4117,18,1,"Conscious",21,631,1,341,"Same_Path","Rectangle"
"1047",4119,18,1,"Conscious",23,701,1,177,"Different_Path","Rectangle"
"1050",4122,18,1,"Conscious",26,529,1,133,"Different_Path","Rectangle"
"1051",4123,18,1,"Conscious",27,484,1,41,"Different_Path","Rectangle"
"1054",4126,18,1,"Conscious",30,397,1,88,"Different_Path","Rectangle"
"1058",4130,18,1,"Conscious",34,454,1,340,"Different_Path","Rectangle"
"1059",4131,18,1,"Conscious",35,416,1,345,"Same_Path","Rectangle"
"1060",4132,18,1,"Conscious",36,489,1,208,"Same_Path","Rectangle"
"1063",4135,18,1,"Conscious",39,561,1,128,"Different_Path","Rectangle"
"1064",4136,18,1,"Conscious",40,438,1,296,"Different_Path","Rectangle"
"1066",4138,18,1,"Conscious",42,471,1,16,"Different_Path","Rectangle"
"1068",4140,18,1,"Conscious",44,510,1,234,"Different_Path","Rectangle"
"1071",4143,18,1,"Conscious",47,340,1,163,"Same_Path","Rectangle"
"1073",4145,18,1,"Conscious",49,1409,1,107,"Same_Path","Diamond"
"1075",4147,18,1,"Conscious",51,575,1,69,"Same_Path","Rectangle"
"1076",4148,18,1,"Conscious",52,680,1,248,"Same_Path","Rectangle"
"1080",4152,18,1,"Conscious",56,2279,1,281,"Different_Path","Diamond"
"1081",4153,18,1,"Conscious",57,473,1,30,"Same_Path","Rectangle"
"1083",4155,18,1,"Conscious",59,429,1,280,"Different_Path","Rectangle"
"1084",4156,18,1,"Conscious",60,387,1,176,"Different_Path","Rectangle"
"1085",4157,18,1,"Conscious",61,338,1,157,"Different_Path","Rectangle"
"1089",4353,19,1,"Conscious",1,753,1,236,"Different_Path","Diamond"
"1090",4354,19,1,"Conscious",2,560,1,91,"Same_Path","Rectangle"
"1091",4355,19,1,"Conscious",3,795,1,35,"Same_Path","Diamond"
"1092",4356,19,1,"Conscious",4,561,1,2,"Different_Path","Rectangle"
"1093",4357,19,1,"Conscious",5,656,1,172,"Same_Path","Diamond"
"1094",4358,19,1,"Conscious",6,817,1,216,"Different_Path","Diamond"
"1095",4359,19,1,"Conscious",7,506,1,91,"Same_Path","Rectangle"
"1096",4360,19,1,"Conscious",8,546,1,318,"Same_Path","Rectangle"
"1097",4361,19,1,"Conscious",9,553,1,182,"Different_Path","Rectangle"
"1098",4362,19,1,"Conscious",10,599,1,268,"Different_Path","Rectangle"
"1099",4363,19,1,"Conscious",11,474,1,60,"Same_Path","Diamond"
"1100",4364,19,1,"Conscious",12,583,1,6,"Different_Path","Rectangle"
"1101",4365,19,1,"Conscious",13,500,1,75,"Same_Path","Rectangle"
"1102",4366,19,1,"Conscious",14,472,1,103,"Same_Path","Rectangle"
"1103",4367,19,1,"Conscious",15,525,1,108,"Different_Path","Diamond"
"1104",4368,19,1,"Conscious",16,544,1,240,"Different_Path","Diamond"
"1105",4369,19,1,"Conscious",17,495,1,82,"Same_Path","Diamond"
"1106",4370,19,1,"Conscious",18,497,1,238,"Same_Path","Diamond"
"1107",4371,19,1,"Conscious",19,466,1,78,"Same_Path","Diamond"
"1108",4372,19,1,"Conscious",20,601,1,34,"Same_Path","Rectangle"
"1109",4373,19,1,"Conscious",21,548,1,285,"Same_Path","Diamond"
"1110",4374,19,1,"Conscious",22,524,1,328,"Same_Path","Rectangle"
"1111",4375,19,1,"Conscious",23,575,1,244,"Different_Path","Rectangle"
"1112",4376,19,1,"Conscious",24,545,1,151,"Same_Path","Diamond"
"1113",4377,19,1,"Conscious",25,609,1,302,"Same_Path","Rectangle"
"1114",4378,19,1,"Conscious",26,573,1,38,"Same_Path","Rectangle"
"1115",4379,19,1,"Conscious",27,582,1,223,"Same_Path","Rectangle"
"1116",4380,19,1,"Conscious",28,557,1,178,"Different_Path","Diamond"
"1117",4381,19,1,"Conscious",29,499,1,345,"Different_Path","Rectangle"
"1118",4382,19,1,"Conscious",30,552,1,323,"Different_Path","Rectangle"
"1119",4383,19,1,"Conscious",31,557,1,7,"Same_Path","Rectangle"
"1120",4384,19,1,"Conscious",32,515,1,73,"Different_Path","Diamond"
"1121",4385,19,1,"Conscious",33,520,1,80,"Different_Path","Rectangle"
"1122",4386,19,1,"Conscious",34,573,1,222,"Same_Path","Diamond"
"1123",4387,19,1,"Conscious",35,514,1,136,"Same_Path","Rectangle"
"1124",4388,19,1,"Conscious",36,704,1,178,"Different_Path","Diamond"
"1125",4389,19,1,"Conscious",37,455,1,225,"Different_Path","Diamond"
"1126",4390,19,1,"Conscious",38,528,1,260,"Different_Path","Diamond"
"1127",4391,19,1,"Conscious",39,604,1,247,"Different_Path","Rectangle"
"1128",4392,19,1,"Conscious",40,591,1,161,"Different_Path","Diamond"
"1129",4393,19,1,"Conscious",41,484,1,135,"Same_Path","Diamond"
"1130",4394,19,1,"Conscious",42,455,1,123,"Same_Path","Rectangle"
"1131",4395,19,1,"Conscious",43,488,1,219,"Different_Path","Diamond"
"1132",4396,19,1,"Conscious",44,444,1,140,"Different_Path","Rectangle"
"1133",4397,19,1,"Conscious",45,735,1,306,"Different_Path","Rectangle"
"1134",4398,19,1,"Conscious",46,536,1,60,"Different_Path","Rectangle"
"1135",4399,19,1,"Conscious",47,554,1,215,"Different_Path","Rectangle"
"1136",4400,19,1,"Conscious",48,399,1,283,"Same_Path","Rectangle"
"1137",4401,19,1,"Conscious",49,516,1,186,"Same_Path","Diamond"
"1138",4402,19,1,"Conscious",50,474,1,226,"Same_Path","Diamond"
"1139",4403,19,1,"Conscious",51,511,1,193,"Different_Path","Diamond"
"1140",4404,19,1,"Conscious",52,476,1,166,"Same_Path","Rectangle"
"1141",4405,19,1,"Conscious",53,497,1,70,"Different_Path","Diamond"
"1142",4406,19,1,"Conscious",54,489,1,127,"Same_Path","Diamond"
"1143",4407,19,1,"Conscious",55,530,1,199,"Different_Path","Diamond"
"1144",4408,19,1,"Conscious",56,501,1,158,"Different_Path","Rectangle"
"1145",4409,19,1,"Conscious",57,505,1,261,"Different_Path","Diamond"
"1146",4410,19,1,"Conscious",58,472,1,237,"Same_Path","Rectangle"
"1147",4411,19,1,"Conscious",59,565,1,150,"Different_Path","Diamond"
"1148",4412,19,1,"Conscious",60,473,1,280,"Same_Path","Diamond"
"1149",4413,19,1,"Conscious",61,494,1,130,"Same_Path","Diamond"
"1150",4414,19,1,"Conscious",62,463,1,328,"Same_Path","Diamond"
"1151",4415,19,1,"Conscious",63,518,1,82,"Different_Path","Rectangle"
"1152",4416,19,1,"Conscious",64,468,1,103,"Different_Path","Rectangle"
"1153",4609,20,1,"Conscious",1,434,1,63,"Same_Path","Rectangle"
"1154",4610,20,1,"Conscious",2,388,1,33,"Different_Path","Rectangle"
"1155",4611,20,1,"Conscious",3,413,1,118,"Same_Path","Rectangle"
"1156",4612,20,1,"Conscious",4,503,1,32,"Same_Path","Diamond"
"1157",4613,20,1,"Conscious",5,702,1,343,"Same_Path","Diamond"
"1158",4614,20,1,"Conscious",6,797,1,227,"Same_Path","Rectangle"
"1159",4615,20,1,"Conscious",7,1338,1,14,"Different_Path","Diamond"
"1160",4616,20,1,"Conscious",8,523,1,24,"Same_Path","Diamond"
"1161",4617,20,1,"Conscious",9,703,1,7,"Different_Path","Rectangle"
"1162",4618,20,1,"Conscious",10,581,1,68,"Same_Path","Rectangle"
"1163",4619,20,1,"Conscious",11,365,1,349,"Same_Path","Diamond"
"1164",4620,20,1,"Conscious",12,640,1,7,"Same_Path","Rectangle"
"1165",4621,20,1,"Conscious",13,582,1,193,"Different_Path","Rectangle"
"1166",4622,20,1,"Conscious",14,517,1,114,"Same_Path","Diamond"
"1167",4623,20,1,"Conscious",15,770,1,233,"Different_Path","Diamond"
"1168",4624,20,1,"Conscious",16,531,1,34,"Same_Path","Diamond"
"1169",4625,20,1,"Conscious",17,477,1,164,"Different_Path","Rectangle"
"1170",4626,20,1,"Conscious",18,722,1,321,"Different_Path","Diamond"
"1171",4627,20,1,"Conscious",19,809,1,32,"Different_Path","Diamond"
"1172",4628,20,1,"Conscious",20,562,1,51,"Different_Path","Rectangle"
"1173",4629,20,1,"Conscious",21,718,1,76,"Same_Path","Diamond"
"1174",4630,20,1,"Conscious",22,835,1,183,"Same_Path","Rectangle"
"1175",4631,20,1,"Conscious",23,512,1,151,"Different_Path","Rectangle"
"1177",4633,20,1,"Conscious",25,509,1,139,"Same_Path","Rectangle"
"1178",4634,20,1,"Conscious",26,658,1,278,"Different_Path","Diamond"
"1179",4635,20,1,"Conscious",27,659,1,352,"Same_Path","Rectangle"
"1180",4636,20,1,"Conscious",28,1570,1,119,"Same_Path","Diamond"
"1181",4637,20,1,"Conscious",29,493,1,125,"Different_Path","Diamond"
"1182",4638,20,1,"Conscious",30,559,1,116,"Same_Path","Rectangle"
"1183",4639,20,1,"Conscious",31,1172,1,166,"Different_Path","Diamond"
"1184",4640,20,1,"Conscious",32,797,1,215,"Different_Path","Diamond"
"1185",4641,20,1,"Conscious",33,802,1,136,"Different_Path","Rectangle"
"1186",4642,20,1,"Conscious",34,605,1,308,"Different_Path","Diamond"
"1187",4643,20,1,"Conscious",35,857,1,296,"Different_Path","Rectangle"
"1188",4644,20,1,"Conscious",36,610,1,98,"Different_Path","Rectangle"
"1189",4645,20,1,"Conscious",37,717,1,117,"Different_Path","Diamond"
"1190",4646,20,1,"Conscious",38,1258,1,327,"Same_Path","Diamond"
"1191",4647,20,1,"Conscious",39,531,1,94,"Same_Path","Rectangle"
"1192",4648,20,1,"Conscious",40,805,1,222,"Different_Path","Diamond"
"1193",4649,20,1,"Conscious",41,576,1,227,"Different_Path","Rectangle"
"1194",4650,20,1,"Conscious",42,697,1,171,"Same_Path","Rectangle"
"1195",4651,20,1,"Conscious",43,426,1,307,"Different_Path","Diamond"
"1196",4652,20,1,"Conscious",44,377,1,188,"Same_Path","Rectangle"
"1197",4653,20,1,"Conscious",45,483,1,183,"Same_Path","Rectangle"
"1198",4654,20,1,"Conscious",46,1778,1,200,"Same_Path","Rectangle"
"1199",4655,20,1,"Conscious",47,323,1,267,"Same_Path","Diamond"
"1200",4656,20,1,"Conscious",48,374,1,280,"Same_Path","Diamond"
"1201",4657,20,1,"Conscious",49,599,1,332,"Same_Path","Rectangle"
"1202",4658,20,1,"Conscious",50,1859,1,308,"Different_Path","Diamond"
"1203",4659,20,1,"Conscious",51,516,1,151,"Different_Path","Diamond"
"1204",4660,20,1,"Conscious",52,465,1,22,"Same_Path","Rectangle"
"1205",4661,20,1,"Conscious",53,2192,1,112,"Same_Path","Rectangle"
"1206",4662,20,1,"Conscious",54,653,1,31,"Different_Path","Rectangle"
"1207",4663,20,1,"Conscious",55,470,1,171,"Same_Path","Diamond"
"1208",4664,20,1,"Conscious",56,1139,1,248,"Different_Path","Rectangle"
"1209",4665,20,1,"Conscious",57,2108,1,61,"Different_Path","Diamond"
"1210",4666,20,1,"Conscious",58,385,1,145,"Different_Path","Rectangle"
"1211",4667,20,1,"Conscious",59,377,1,95,"Same_Path","Diamond"
"1212",4668,20,1,"Conscious",60,658,1,357,"Different_Path","Rectangle"
"1213",4669,20,1,"Conscious",61,499,1,7,"Different_Path","Diamond"
"1214",4670,20,1,"Conscious",62,475,1,344,"Different_Path","Diamond"
"1215",4671,20,1,"Conscious",63,536,1,180,"Different_Path","Rectangle"
"1216",4672,20,1,"Conscious",64,497,1,196,"Same_Path","Diamond"
"1217",4865,21,1,"Conscious",1,399,1,201,"Same_Path","Diamond"
"1218",4866,21,1,"Conscious",2,549,1,56,"Same_Path","Rectangle"
"1220",4868,21,1,"Conscious",4,521,1,113,"Different_Path","Diamond"
"1221",4869,21,1,"Conscious",5,424,1,43,"Different_Path","Rectangle"
"1222",4870,21,1,"Conscious",6,568,1,4,"Different_Path","Diamond"
"1223",4871,21,1,"Conscious",7,339,1,280,"Different_Path","Diamond"
"1224",4872,21,1,"Conscious",8,404,1,181,"Same_Path","Rectangle"
"1225",4873,21,1,"Conscious",9,520,1,237,"Different_Path","Rectangle"
"1226",4874,21,1,"Conscious",10,389,1,318,"Same_Path","Rectangle"
"1227",4875,21,1,"Conscious",11,426,1,149,"Different_Path","Diamond"
"1228",4876,21,1,"Conscious",12,498,1,89,"Different_Path","Rectangle"
"1229",4877,21,1,"Conscious",13,779,1,234,"Different_Path","Rectangle"
"1230",4878,21,1,"Conscious",14,452,1,196,"Same_Path","Diamond"
"1231",4879,21,1,"Conscious",15,510,1,48,"Same_Path","Rectangle"
"1232",4880,21,1,"Conscious",16,491,1,352,"Different_Path","Rectangle"
"1233",4881,21,1,"Conscious",17,428,1,41,"Different_Path","Rectangle"
"1234",4882,21,1,"Conscious",18,563,1,253,"Different_Path","Rectangle"
"1235",4883,21,1,"Conscious",19,431,1,60,"Different_Path","Rectangle"
"1236",4884,21,1,"Conscious",20,332,1,12,"Same_Path","Diamond"
"1238",4886,21,1,"Conscious",22,495,1,157,"Different_Path","Rectangle"
"1239",4887,21,1,"Conscious",23,488,1,50,"Same_Path","Rectangle"
"1240",4888,21,1,"Conscious",24,531,1,337,"Same_Path","Rectangle"
"1241",4889,21,1,"Conscious",25,349,1,157,"Different_Path","Rectangle"
"1242",4890,21,1,"Conscious",26,452,1,105,"Different_Path","Diamond"
"1243",4891,21,1,"Conscious",27,373,1,273,"Same_Path","Rectangle"
"1245",4893,21,1,"Conscious",29,440,1,81,"Same_Path","Rectangle"
"1246",4894,21,1,"Conscious",30,531,1,8,"Different_Path","Diamond"
"1247",4895,21,1,"Conscious",31,452,1,188,"Same_Path","Diamond"
"1248",4896,21,1,"Conscious",32,486,1,218,"Different_Path","Rectangle"
"1249",4897,21,1,"Conscious",33,497,1,61,"Same_Path","Rectangle"
"1250",4898,21,1,"Conscious",34,554,1,163,"Different_Path","Rectangle"
"1251",4899,21,1,"Conscious",35,462,1,218,"Different_Path","Diamond"
"1252",4900,21,1,"Conscious",36,421,1,194,"Different_Path","Diamond"
"1253",4901,21,1,"Conscious",37,557,1,37,"Same_Path","Diamond"
"1254",4902,21,1,"Conscious",38,514,1,142,"Different_Path","Diamond"
"1255",4903,21,1,"Conscious",39,439,1,254,"Same_Path","Diamond"
"1256",4904,21,1,"Conscious",40,420,1,91,"Different_Path","Rectangle"
"1257",4905,21,1,"Conscious",41,724,1,217,"Same_Path","Rectangle"
"1258",4906,21,1,"Conscious",42,463,1,67,"Different_Path","Diamond"
"1259",4907,21,1,"Conscious",43,542,1,168,"Same_Path","Diamond"
"1260",4908,21,1,"Conscious",44,637,1,235,"Different_Path","Rectangle"
"1261",4909,21,1,"Conscious",45,586,1,221,"Same_Path","Rectangle"
"1262",4910,21,1,"Conscious",46,482,1,82,"Same_Path","Rectangle"
"1263",4911,21,1,"Conscious",47,413,1,8,"Same_Path","Rectangle"
"1264",4912,21,1,"Conscious",48,462,1,234,"Different_Path","Rectangle"
"1265",4913,21,1,"Conscious",49,566,1,315,"Different_Path","Diamond"
"1266",4914,21,1,"Conscious",50,417,1,229,"Different_Path","Diamond"
"1267",4915,21,1,"Conscious",51,339,1,185,"Different_Path","Diamond"
"1268",4916,21,1,"Conscious",52,412,1,19,"Different_Path","Diamond"
"1269",4917,21,1,"Conscious",53,525,1,71,"Same_Path","Rectangle"
"1270",4918,21,1,"Conscious",54,505,1,68,"Different_Path","Diamond"
"1271",4919,21,1,"Conscious",55,400,1,192,"Same_Path","Rectangle"
"1272",4920,21,1,"Conscious",56,475,1,339,"Same_Path","Diamond"
"1273",4921,21,1,"Conscious",57,473,1,320,"Same_Path","Diamond"
"1274",4922,21,1,"Conscious",58,706,1,163,"Same_Path","Diamond"
"1275",4923,21,1,"Conscious",59,545,1,121,"Different_Path","Diamond"
"1276",4924,21,1,"Conscious",60,392,1,86,"Same_Path","Diamond"
"1277",4925,21,1,"Conscious",61,485,1,296,"Different_Path","Diamond"
"1279",4927,21,1,"Conscious",63,390,1,279,"Same_Path","Diamond"
"1280",4928,21,1,"Conscious",64,548,1,126,"Same_Path","Diamond"
"1282",5122,22,1,"Conscious",2,1059,1,53,"Same_Path","Rectangle"
"1283",5123,22,1,"Conscious",3,788,1,49,"Different_Path","Diamond"
"1284",5124,22,1,"Conscious",4,707,1,313,"Different_Path","Rectangle"
"1285",5125,22,1,"Conscious",5,762,1,209,"Same_Path","Rectangle"
"1286",5126,22,1,"Conscious",6,736,1,198,"Same_Path","Diamond"
"1287",5127,22,1,"Conscious",7,657,1,53,"Same_Path","Rectangle"
"1288",5128,22,1,"Conscious",8,602,1,308,"Same_Path","Rectangle"
"1289",5129,22,1,"Conscious",9,837,1,224,"Same_Path","Diamond"
"1290",5130,22,1,"Conscious",10,1394,1,127,"Different_Path","Diamond"
"1291",5131,22,1,"Conscious",11,447,1,185,"Different_Path","Rectangle"
"1292",5132,22,1,"Conscious",12,489,1,145,"Same_Path","Rectangle"
"1293",5133,22,1,"Conscious",13,444,1,28,"Same_Path","Rectangle"
"1294",5134,22,1,"Conscious",14,447,1,87,"Same_Path","Rectangle"
"1295",5135,22,1,"Conscious",15,443,1,45,"Different_Path","Rectangle"
"1296",5136,22,1,"Conscious",16,406,1,67,"Different_Path","Rectangle"
"1297",5137,22,1,"Conscious",17,393,1,87,"Same_Path","Diamond"
"1298",5138,22,1,"Conscious",18,487,1,151,"Different_Path","Diamond"
"1299",5139,22,1,"Conscious",19,626,1,18,"Same_Path","Diamond"
"1300",5140,22,1,"Conscious",20,617,1,325,"Same_Path","Diamond"
"1301",5141,22,1,"Conscious",21,554,1,341,"Same_Path","Rectangle"
"1302",5142,22,1,"Conscious",22,640,1,177,"Same_Path","Diamond"
"1303",5143,22,1,"Conscious",23,599,1,177,"Different_Path","Rectangle"
"1304",5144,22,1,"Conscious",24,524,1,122,"Same_Path","Diamond"
"1305",5145,22,1,"Conscious",25,481,1,325,"Same_Path","Diamond"
"1306",5146,22,1,"Conscious",26,534,1,133,"Different_Path","Rectangle"
"1307",5147,22,1,"Conscious",27,488,1,41,"Different_Path","Rectangle"
"1308",5148,22,1,"Conscious",28,555,1,281,"Same_Path","Diamond"
"1309",5149,22,1,"Conscious",29,649,1,141,"Same_Path","Diamond"
"1310",5150,22,1,"Conscious",30,596,1,88,"Different_Path","Rectangle"
"1311",5151,22,1,"Conscious",31,689,1,146,"Different_Path","Diamond"
"1312",5152,22,1,"Conscious",32,684,1,35,"Different_Path","Diamond"
"1313",5153,22,1,"Conscious",33,839,1,48,"Different_Path","Diamond"
"1314",5154,22,1,"Conscious",34,613,1,340,"Different_Path","Rectangle"
"1315",5155,22,1,"Conscious",35,606,1,345,"Same_Path","Rectangle"
"1316",5156,22,1,"Conscious",36,457,1,208,"Same_Path","Rectangle"
"1317",5157,22,1,"Conscious",37,619,1,22,"Different_Path","Diamond"
"1318",5158,22,1,"Conscious",38,764,1,85,"Same_Path","Diamond"
"1319",5159,22,1,"Conscious",39,503,1,128,"Different_Path","Rectangle"
"1320",5160,22,1,"Conscious",40,670,1,296,"Different_Path","Rectangle"
"1321",5161,22,1,"Conscious",41,605,1,6,"Different_Path","Diamond"
"1322",5162,22,1,"Conscious",42,561,1,16,"Different_Path","Rectangle"
"1323",5163,22,1,"Conscious",43,596,1,61,"Different_Path","Diamond"
"1324",5164,22,1,"Conscious",44,529,1,234,"Different_Path","Rectangle"
"1325",5165,22,1,"Conscious",45,475,1,264,"Same_Path","Diamond"
"1326",5166,22,1,"Conscious",46,472,1,234,"Different_Path","Diamond"
"1327",5167,22,1,"Conscious",47,533,1,163,"Same_Path","Rectangle"
"1328",5168,22,1,"Conscious",48,591,1,197,"Same_Path","Diamond"
"1329",5169,22,1,"Conscious",49,476,1,107,"Same_Path","Diamond"
"1330",5170,22,1,"Conscious",50,539,1,269,"Different_Path","Diamond"
"1331",5171,22,1,"Conscious",51,546,1,69,"Same_Path","Rectangle"
"1332",5172,22,1,"Conscious",52,4798,1,248,"Same_Path","Rectangle"
"1333",5173,22,1,"Conscious",53,991,1,67,"Different_Path","Diamond"
"1334",5174,22,1,"Conscious",54,713,1,133,"Same_Path","Diamond"
"1335",5175,22,1,"Conscious",55,933,1,226,"Different_Path","Rectangle"
"1336",5176,22,1,"Conscious",56,735,1,281,"Different_Path","Diamond"
"1337",5177,22,1,"Conscious",57,752,1,30,"Same_Path","Rectangle"
"1338",5178,22,1,"Conscious",58,765,1,335,"Same_Path","Diamond"
"1339",5179,22,1,"Conscious",59,584,1,280,"Different_Path","Rectangle"
"1340",5180,22,1,"Conscious",60,568,1,176,"Different_Path","Rectangle"
"1341",5181,22,1,"Conscious",61,579,1,157,"Different_Path","Rectangle"
"1342",5182,22,1,"Conscious",62,676,1,161,"Different_Path","Diamond"
"1343",5183,22,1,"Conscious",63,617,1,111,"Different_Path","Diamond"
"1344",5184,22,1,"Conscious",64,467,1,184,"Same_Path","Diamond"
"1345",5377,23,1,"Conscious",1,528,1,95,"Same_Path","Rectangle"
"1346",5378,23,1,"Conscious",2,405,1,53,"Same_Path","Rectangle"
"1347",5379,23,1,"Conscious",3,600,1,49,"Different_Path","Diamond"
"1348",5380,23,1,"Conscious",4,462,1,313,"Different_Path","Rectangle"
"1349",5381,23,1,"Conscious",5,583,1,209,"Same_Path","Rectangle"
"1350",5382,23,1,"Conscious",6,744,1,198,"Same_Path","Diamond"
"1351",5383,23,1,"Conscious",7,471,1,53,"Same_Path","Rectangle"
"1352",5384,23,1,"Conscious",8,447,1,308,"Same_Path","Rectangle"
"1353",5385,23,1,"Conscious",9,610,1,224,"Same_Path","Diamond"
"1354",5386,23,1,"Conscious",10,541,1,127,"Different_Path","Diamond"
"1355",5387,23,1,"Conscious",11,573,1,185,"Different_Path","Rectangle"
"1356",5388,23,1,"Conscious",12,504,1,145,"Same_Path","Rectangle"
"1357",5389,23,1,"Conscious",13,401,1,28,"Same_Path","Rectangle"
"1358",5390,23,1,"Conscious",14,414,1,87,"Same_Path","Rectangle"
"1359",5391,23,1,"Conscious",15,384,1,45,"Different_Path","Rectangle"
"1360",5392,23,1,"Conscious",16,368,1,67,"Different_Path","Rectangle"
"1361",5393,23,1,"Conscious",17,555,1,87,"Same_Path","Diamond"
"1362",5394,23,1,"Conscious",18,464,1,151,"Different_Path","Diamond"
"1363",5395,23,1,"Conscious",19,383,1,18,"Same_Path","Diamond"
"1364",5396,23,1,"Conscious",20,366,1,325,"Same_Path","Diamond"
"1365",5397,23,1,"Conscious",21,506,1,341,"Same_Path","Rectangle"
"1366",5398,23,1,"Conscious",22,513,1,177,"Same_Path","Diamond"
"1367",5399,23,1,"Conscious",23,496,1,177,"Different_Path","Rectangle"
"1368",5400,23,1,"Conscious",24,458,1,122,"Same_Path","Diamond"
"1369",5401,23,1,"Conscious",25,429,1,325,"Same_Path","Diamond"
"1370",5402,23,1,"Conscious",26,410,1,133,"Different_Path","Rectangle"
"1371",5403,23,1,"Conscious",27,374,1,41,"Different_Path","Rectangle"
"1372",5404,23,1,"Conscious",28,479,1,281,"Same_Path","Diamond"
"1373",5405,23,1,"Conscious",29,516,1,141,"Same_Path","Diamond"
"1374",5406,23,1,"Conscious",30,458,1,88,"Different_Path","Rectangle"
"1375",5407,23,1,"Conscious",31,451,1,146,"Different_Path","Diamond"
"1376",5408,23,1,"Conscious",32,390,1,35,"Different_Path","Diamond"
"1377",5409,23,1,"Conscious",33,366,1,48,"Different_Path","Diamond"
"1378",5410,23,1,"Conscious",34,409,1,340,"Different_Path","Rectangle"
"1379",5411,23,1,"Conscious",35,428,1,345,"Same_Path","Rectangle"
"1380",5412,23,1,"Conscious",36,348,1,208,"Same_Path","Rectangle"
"1381",5413,23,1,"Conscious",37,443,1,22,"Different_Path","Diamond"
"1382",5414,23,1,"Conscious",38,454,1,85,"Same_Path","Diamond"
"1383",5415,23,1,"Conscious",39,536,1,128,"Different_Path","Rectangle"
"1384",5416,23,1,"Conscious",40,382,1,296,"Different_Path","Rectangle"
"1385",5417,23,1,"Conscious",41,510,1,6,"Different_Path","Diamond"
"1386",5418,23,1,"Conscious",42,430,1,16,"Different_Path","Rectangle"
"1387",5419,23,1,"Conscious",43,405,1,61,"Different_Path","Diamond"
"1388",5420,23,1,"Conscious",44,496,1,234,"Different_Path","Rectangle"
"1389",5421,23,1,"Conscious",45,554,1,264,"Same_Path","Diamond"
"1390",5422,23,1,"Conscious",46,351,1,234,"Different_Path","Diamond"
"1391",5423,23,1,"Conscious",47,414,1,163,"Same_Path","Rectangle"
"1392",5424,23,1,"Conscious",48,511,1,197,"Same_Path","Diamond"
"1393",5425,23,1,"Conscious",49,535,1,107,"Same_Path","Diamond"
"1394",5426,23,1,"Conscious",50,504,1,269,"Different_Path","Diamond"
"1395",5427,23,1,"Conscious",51,479,1,69,"Same_Path","Rectangle"
"1396",5428,23,1,"Conscious",52,517,1,248,"Same_Path","Rectangle"
"1397",5429,23,1,"Conscious",53,426,1,67,"Different_Path","Diamond"
"1398",5430,23,1,"Conscious",54,389,1,133,"Same_Path","Diamond"
"1399",5431,23,1,"Conscious",55,452,1,226,"Different_Path","Rectangle"
"1400",5432,23,1,"Conscious",56,392,1,281,"Different_Path","Diamond"
"1401",5433,23,1,"Conscious",57,543,1,30,"Same_Path","Rectangle"
"1402",5434,23,1,"Conscious",58,470,1,335,"Same_Path","Diamond"
"1403",5435,23,1,"Conscious",59,512,1,280,"Different_Path","Rectangle"
"1404",5436,23,1,"Conscious",60,455,1,176,"Different_Path","Rectangle"
"1405",5437,23,1,"Conscious",61,352,1,157,"Different_Path","Rectangle"
"1406",5438,23,1,"Conscious",62,454,1,161,"Different_Path","Diamond"
"1407",5439,23,1,"Conscious",63,431,1,111,"Different_Path","Diamond"
"1408",5440,23,1,"Conscious",64,396,1,184,"Same_Path","Diamond"
"1409",5633,24,1,"Conscious",1,577,1,95,"Same_Path","Rectangle"
"1410",5634,24,1,"Conscious",2,696,1,53,"Same_Path","Rectangle"
"1411",5635,24,1,"Conscious",3,787,1,49,"Different_Path","Diamond"
"1412",5636,24,1,"Conscious",4,698,1,313,"Different_Path","Rectangle"
"1413",5637,24,1,"Conscious",5,635,1,209,"Same_Path","Rectangle"
"1414",5638,24,1,"Conscious",6,617,1,198,"Same_Path","Diamond"
"1415",5639,24,1,"Conscious",7,602,1,53,"Same_Path","Rectangle"
"1416",5640,24,1,"Conscious",8,599,1,308,"Same_Path","Rectangle"
"1417",5641,24,1,"Conscious",9,677,1,224,"Same_Path","Diamond"
"1418",5642,24,1,"Conscious",10,602,1,127,"Different_Path","Diamond"
"1419",5643,24,1,"Conscious",11,517,1,185,"Different_Path","Rectangle"
"1420",5644,24,1,"Conscious",12,530,1,145,"Same_Path","Rectangle"
"1421",5645,24,1,"Conscious",13,613,1,28,"Same_Path","Rectangle"
"1422",5646,24,1,"Conscious",14,513,1,87,"Same_Path","Rectangle"
"1423",5647,24,1,"Conscious",15,410,1,45,"Different_Path","Rectangle"
"1424",5648,24,1,"Conscious",16,469,1,67,"Different_Path","Rectangle"
"1425",5649,24,1,"Conscious",17,645,1,87,"Same_Path","Diamond"
"1426",5650,24,1,"Conscious",18,572,1,151,"Different_Path","Diamond"
"1427",5651,24,1,"Conscious",19,573,1,18,"Same_Path","Diamond"
"1428",5652,24,1,"Conscious",20,527,1,325,"Same_Path","Diamond"
"1429",5653,24,1,"Conscious",21,522,1,341,"Same_Path","Rectangle"
"1430",5654,24,1,"Conscious",22,511,1,177,"Same_Path","Diamond"
"1431",5655,24,1,"Conscious",23,470,1,177,"Different_Path","Rectangle"
"1432",5656,24,1,"Conscious",24,460,1,122,"Same_Path","Diamond"
"1433",5657,24,1,"Conscious",25,469,1,325,"Same_Path","Diamond"
"1434",5658,24,1,"Conscious",26,460,1,133,"Different_Path","Rectangle"
"1435",5659,24,1,"Conscious",27,479,1,41,"Different_Path","Rectangle"
"1436",5660,24,1,"Conscious",28,541,1,281,"Same_Path","Diamond"
"1437",5661,24,1,"Conscious",29,574,1,141,"Same_Path","Diamond"
"1438",5662,24,1,"Conscious",30,559,1,88,"Different_Path","Rectangle"
"1439",5663,24,1,"Conscious",31,565,1,146,"Different_Path","Diamond"
"1440",5664,24,1,"Conscious",32,480,1,35,"Different_Path","Diamond"
"1441",5665,24,1,"Conscious",33,533,1,48,"Different_Path","Diamond"
"1442",5666,24,1,"Conscious",34,431,1,340,"Different_Path","Rectangle"
"1443",5667,24,1,"Conscious",35,510,1,345,"Same_Path","Rectangle"
"1444",5668,24,1,"Conscious",36,403,1,208,"Same_Path","Rectangle"
"1445",5669,24,1,"Conscious",37,447,1,22,"Different_Path","Diamond"
"1446",5670,24,1,"Conscious",38,426,1,85,"Same_Path","Diamond"
"1447",5671,24,1,"Conscious",39,449,1,128,"Different_Path","Rectangle"
"1448",5672,24,1,"Conscious",40,421,1,296,"Different_Path","Rectangle"
"1449",5673,24,1,"Conscious",41,582,1,6,"Different_Path","Diamond"
"1450",5674,24,1,"Conscious",42,365,1,16,"Different_Path","Rectangle"
"1451",5675,24,1,"Conscious",43,545,1,61,"Different_Path","Diamond"
"1452",5676,24,1,"Conscious",44,424,1,234,"Different_Path","Rectangle"
"1453",5677,24,1,"Conscious",45,495,1,264,"Same_Path","Diamond"
"1454",5678,24,1,"Conscious",46,472,1,234,"Different_Path","Diamond"
"1455",5679,24,1,"Conscious",47,405,1,163,"Same_Path","Rectangle"
"1456",5680,24,1,"Conscious",48,537,1,197,"Same_Path","Diamond"
"1457",5681,24,1,"Conscious",49,458,1,107,"Same_Path","Diamond"
"1458",5682,24,1,"Conscious",50,387,1,269,"Different_Path","Diamond"
"1459",5683,24,1,"Conscious",51,491,1,69,"Same_Path","Rectangle"
"1460",5684,24,1,"Conscious",52,422,1,248,"Same_Path","Rectangle"
"1461",5685,24,1,"Conscious",53,500,1,67,"Different_Path","Diamond"
"1462",5686,24,1,"Conscious",54,537,1,133,"Same_Path","Diamond"
"1463",5687,24,1,"Conscious",55,486,1,226,"Different_Path","Rectangle"
"1464",5688,24,1,"Conscious",56,466,1,281,"Different_Path","Diamond"
"1465",5689,24,1,"Conscious",57,489,1,30,"Same_Path","Rectangle"
"1466",5690,24,1,"Conscious",58,476,1,335,"Same_Path","Diamond"
"1467",5691,24,1,"Conscious",59,551,1,280,"Different_Path","Rectangle"
"1468",5692,24,1,"Conscious",60,535,1,176,"Different_Path","Rectangle"
"1469",5693,24,1,"Conscious",61,480,1,157,"Different_Path","Rectangle"
"1470",5694,24,1,"Conscious",62,507,1,161,"Different_Path","Diamond"
"1471",5695,24,1,"Conscious",63,555,1,111,"Different_Path","Diamond"
"1472",5696,24,1,"Conscious",64,494,1,184,"Same_Path","Diamond"
"1473",5889,25,1,"Conscious",1,479,1,63,"Same_Path","Diamond"
"1474",5890,25,1,"Conscious",2,506,1,265,"Same_Path","Rectangle"
"1475",5891,25,1,"Conscious",3,483,1,35,"Same_Path","Diamond"
"1476",5892,25,1,"Conscious",4,747,1,218,"Different_Path","Rectangle"
"1477",5893,25,1,"Conscious",5,562,1,37,"Same_Path","Rectangle"
"1478",5894,25,1,"Conscious",6,485,1,342,"Same_Path","Diamond"
"1479",5895,25,1,"Conscious",7,669,1,49,"Same_Path","Rectangle"
"1480",5896,25,1,"Conscious",8,564,1,211,"Same_Path","Diamond"
"1481",5897,25,1,"Conscious",9,623,1,270,"Same_Path","Diamond"
"1482",5898,25,1,"Conscious",10,552,1,325,"Different_Path","Diamond"
"1483",5899,25,1,"Conscious",11,572,1,115,"Same_Path","Diamond"
"1484",5900,25,1,"Conscious",12,629,1,28,"Same_Path","Rectangle"
"1485",5901,25,1,"Conscious",13,604,1,152,"Different_Path","Rectangle"
"1486",5902,25,1,"Conscious",14,567,1,320,"Different_Path","Diamond"
"1487",5903,25,1,"Conscious",15,601,1,124,"Different_Path","Rectangle"
"1488",5904,25,1,"Conscious",16,604,1,240,"Different_Path","Rectangle"
"1489",5905,25,1,"Conscious",17,535,1,68,"Same_Path","Rectangle"
"1490",5906,25,1,"Conscious",18,496,1,229,"Different_Path","Rectangle"
"1491",5907,25,1,"Conscious",19,570,1,252,"Same_Path","Rectangle"
"1492",5908,25,1,"Conscious",20,789,1,224,"Same_Path","Diamond"
"1493",5909,25,1,"Conscious",21,660,1,131,"Different_Path","Diamond"
"1494",5910,25,1,"Conscious",22,587,1,91,"Same_Path","Diamond"
"1495",5911,25,1,"Conscious",23,571,1,133,"Same_Path","Diamond"
"1496",5912,25,1,"Conscious",24,486,1,196,"Different_Path","Rectangle"
"1497",5913,25,1,"Conscious",25,513,1,3,"Different_Path","Diamond"
"1498",5914,25,1,"Conscious",26,559,1,61,"Different_Path","Diamond"
"1499",5915,25,1,"Conscious",27,484,1,93,"Same_Path","Rectangle"
"1500",5916,25,1,"Conscious",28,503,1,316,"Same_Path","Diamond"
"1501",5917,25,1,"Conscious",29,630,1,190,"Same_Path","Diamond"
"1502",5918,25,1,"Conscious",30,564,1,187,"Different_Path","Rectangle"
"1503",5919,25,1,"Conscious",31,607,1,24,"Different_Path","Diamond"
"1504",5920,25,1,"Conscious",32,498,1,51,"Same_Path","Rectangle"
"1505",5921,25,1,"Conscious",33,621,1,285,"Different_Path","Diamond"
"1506",5922,25,1,"Conscious",34,947,1,256,"Same_Path","Diamond"
"1507",5923,25,1,"Conscious",35,616,1,127,"Different_Path","Rectangle"
"1508",5924,25,1,"Conscious",36,585,1,242,"Different_Path","Rectangle"
"1509",5925,25,1,"Conscious",37,456,1,199,"Same_Path","Rectangle"
"1510",5926,25,1,"Conscious",38,530,1,231,"Same_Path","Diamond"
"1511",5927,25,1,"Conscious",39,611,1,270,"Same_Path","Rectangle"
"1512",5928,25,1,"Conscious",40,604,1,179,"Different_Path","Rectangle"
"1513",5929,25,1,"Conscious",41,543,1,163,"Same_Path","Rectangle"
"1514",5930,25,1,"Conscious",42,471,1,226,"Same_Path","Rectangle"
"1515",5931,25,1,"Conscious",43,684,1,21,"Same_Path","Rectangle"
"1516",5932,25,1,"Conscious",44,503,1,194,"Different_Path","Rectangle"
"1517",5933,25,1,"Conscious",45,486,1,97,"Same_Path","Rectangle"
"1518",5934,25,1,"Conscious",46,498,1,190,"Different_Path","Diamond"
"1519",5935,25,1,"Conscious",47,523,1,208,"Same_Path","Rectangle"
"1520",5936,25,1,"Conscious",48,559,1,333,"Same_Path","Diamond"
"1521",5937,25,1,"Conscious",49,484,1,226,"Different_Path","Diamond"
"1522",5938,25,1,"Conscious",50,551,1,105,"Different_Path","Rectangle"
"1523",5939,25,1,"Conscious",51,652,1,257,"Different_Path","Rectangle"
"1524",5940,25,1,"Conscious",52,518,1,283,"Different_Path","Diamond"
"1525",5941,25,1,"Conscious",53,457,1,202,"Different_Path","Diamond"
"1526",5942,25,1,"Conscious",54,542,1,119,"Different_Path","Diamond"
"1527",5943,25,1,"Conscious",55,589,1,254,"Different_Path","Diamond"
"1528",5944,25,1,"Conscious",56,461,1,120,"Different_Path","Diamond"
"1529",5945,25,1,"Conscious",57,410,1,178,"Same_Path","Rectangle"
"1530",5946,25,1,"Conscious",58,563,1,145,"Same_Path","Rectangle"
"1531",5947,25,1,"Conscious",59,519,1,275,"Different_Path","Rectangle"
"1532",5948,25,1,"Conscious",60,486,1,244,"Different_Path","Diamond"
"1533",5949,25,1,"Conscious",61,553,1,20,"Different_Path","Diamond"
"1534",5950,25,1,"Conscious",62,471,1,286,"Same_Path","Diamond"
"1535",5951,25,1,"Conscious",63,604,1,89,"Different_Path","Rectangle"
"1536",5952,25,1,"Conscious",64,599,1,293,"Different_Path","Diamond"
"1537",6145,26,1,"Conscious",1,411,1,95,"Same_Path","Rectangle"
"1538",6146,26,1,"Conscious",2,554,1,53,"Same_Path","Rectangle"
"1539",6147,26,1,"Conscious",3,577,1,49,"Different_Path","Diamond"
"1540",6148,26,1,"Conscious",4,611,1,313,"Different_Path","Rectangle"
"1541",6149,26,1,"Conscious",5,534,1,209,"Same_Path","Rectangle"
"1542",6150,26,1,"Conscious",6,567,1,198,"Same_Path","Diamond"
"1543",6151,26,1,"Conscious",7,562,1,53,"Same_Path","Rectangle"
"1544",6152,26,1,"Conscious",8,527,1,308,"Same_Path","Rectangle"
"1545",6153,26,1,"Conscious",9,579,1,224,"Same_Path","Diamond"
"1547",6155,26,1,"Conscious",11,638,1,185,"Different_Path","Rectangle"
"1548",6156,26,1,"Conscious",12,603,1,145,"Same_Path","Rectangle"
"1549",6157,26,1,"Conscious",13,646,1,28,"Same_Path","Rectangle"
"1550",6158,26,1,"Conscious",14,641,1,87,"Same_Path","Rectangle"
"1551",6159,26,1,"Conscious",15,566,1,45,"Different_Path","Rectangle"
"1552",6160,26,1,"Conscious",16,553,1,67,"Different_Path","Rectangle"
"1553",6161,26,1,"Conscious",17,615,1,87,"Same_Path","Diamond"
"1554",6162,26,1,"Conscious",18,664,1,151,"Different_Path","Diamond"
"1555",6163,26,1,"Conscious",19,480,1,18,"Same_Path","Diamond"
"1556",6164,26,1,"Conscious",20,413,1,325,"Same_Path","Diamond"
"1557",6165,26,1,"Conscious",21,582,1,341,"Same_Path","Rectangle"
"1558",6166,26,1,"Conscious",22,863,1,177,"Same_Path","Diamond"
"1559",6167,26,1,"Conscious",23,571,1,177,"Different_Path","Rectangle"
"1560",6168,26,1,"Conscious",24,580,1,122,"Same_Path","Diamond"
"1561",6169,26,1,"Conscious",25,405,1,325,"Same_Path","Diamond"
"1562",6170,26,1,"Conscious",26,472,1,133,"Different_Path","Rectangle"
"1563",6171,26,1,"Conscious",27,568,1,41,"Different_Path","Rectangle"
"1564",6172,26,1,"Conscious",28,515,1,281,"Same_Path","Diamond"
"1565",6173,26,1,"Conscious",29,624,1,141,"Same_Path","Diamond"
"1566",6174,26,1,"Conscious",30,511,1,88,"Different_Path","Rectangle"
"1567",6175,26,1,"Conscious",31,763,1,146,"Different_Path","Diamond"
"1568",6176,26,1,"Conscious",32,582,1,35,"Different_Path","Diamond"
"1569",6177,26,1,"Conscious",33,495,1,48,"Different_Path","Diamond"
"1570",6178,26,1,"Conscious",34,968,1,340,"Different_Path","Rectangle"
"1571",6179,26,1,"Conscious",35,588,1,345,"Same_Path","Rectangle"
"1572",6180,26,1,"Conscious",36,451,1,208,"Same_Path","Rectangle"
"1573",6181,26,1,"Conscious",37,462,1,22,"Different_Path","Diamond"
"1574",6182,26,1,"Conscious",38,422,1,85,"Same_Path","Diamond"
"1575",6183,26,1,"Conscious",39,525,1,128,"Different_Path","Rectangle"
"1576",6184,26,1,"Conscious",40,584,1,296,"Different_Path","Rectangle"
"1577",6185,26,1,"Conscious",41,592,1,6,"Different_Path","Diamond"
"1578",6186,26,1,"Conscious",42,647,1,16,"Different_Path","Rectangle"
"1579",6187,26,1,"Conscious",43,610,1,61,"Different_Path","Diamond"
"1580",6188,26,1,"Conscious",44,493,1,234,"Different_Path","Rectangle"
"1581",6189,26,1,"Conscious",45,579,1,264,"Same_Path","Diamond"
"1582",6190,26,1,"Conscious",46,428,1,234,"Different_Path","Diamond"
