subject,block,trial,cond,timelimit,frame,endow,prob,sureOutcome,choice,rt,firstFix,fixBoth,trialType,gainColor,sureSide
114,1,1,ntc,Inf,loss,64,0.67,-21,1,11.112087000044994,NA,NA,target,light,NA
114,1,2,ntc,Inf,gain,64,0.66,42,0,6.144597199978307,NA,NA,target,light,NA
114,1,3,ntc,Inf,gain,36,0.65,23,0,5.963848100043833,sure,1,target,light,right
114,1,4,ntc,Inf,gain,70,0.15,10,0,10.031167199951597,NA,NA,target,light,NA
114,1,5,ntc,Inf,loss,22,0.17,-18,1,5.229006399982609,NA,NA,target,light,NA
114,1,6,ntc,Inf,gain,85,0.39,33,1,12.246244799927808,NA,NA,target,light,NA
114,1,7,ntc,Inf,gain,69,0.1,7,0,3.745444000000134,NA,NA,target,light,NA
114,1,8,ntc,Inf,gain,26,0.3,8,0,16.508695099968463,NA,NA,target,light,NA
114,1,9,ntc,Inf,gain,54,0.63,34,1,4.7879117000848055,NA,NA,target,light,NA
114,1,10,ntc,Inf,loss,88,0.29,-62,0,7.17043709999416,NA,NA,target,light,NA
114,1,11,ntc,Inf,loss,21,0.2,-17,1,7.052339999936521,sure,1,target,light,right
114,1,12,ntc,Inf,gain,22,0.34,7,1,13.114944400032982,NA,NA,target,light,NA
114,1,13,ntc,Inf,gain,73,0.51,12,1,4.593421400059015,NA,NA,catch_gamble,light,NA
114,1,14,ntc,Inf,loss,26,0.11,-3,0,3.4747402999782935,NA,NA,catch_sure,light,NA
114,1,15,ntc,Inf,loss,46,0.39,-28,1,9.569254399975762,NA,NA,target,light,NA
114,1,16,ntc,Inf,loss,78,0.28,-56,0,9.10255340009462,NA,NA,target,light,NA
114,1,17,ntc,Inf,gain,56,0.1,6,0,4.753047900041565,NA,NA,target,light,NA
114,1,18,ntc,Inf,loss,78,0.51,-38,0,5.824959599995054,NA,NA,target,light,NA
114,1,19,ntc,Inf,gain,71,0.54,38,1,7.867672999971546,NA,NA,target,light,NA
114,1,20,ntc,Inf,loss,52,0.54,-44,1,5.196791199967265,NA,NA,catch_gamble,light,NA
114,1,21,ntc,Inf,loss,21,0.28,-15,0,10.766781600075774,NA,NA,target,light,NA
114,1,22,ntc,Inf,loss,87,0.34,-78,1,3.4512011000188068,NA,NA,catch_gamble,light,NA
114,1,23,ntc,Inf,gain,39,0.41,16,0,3.1931358000729233,NA,NA,target,light,NA
114,1,24,ntc,Inf,loss,85,0.39,-52,1,8.49906549998559,NA,NA,target,light,NA
114,1,25,ntc,Inf,loss,22,0.34,-15,1,11.047596400021575,NA,NA,target,light,NA
114,1,26,ntc,Inf,gain,33,0.54,18,0,3.5461372999707237,gamble,1,target,light,right
114,1,27,ntc,Inf,gain,21,0.2,4,0,5.362802800023928,sure,1,target,light,left
114,1,28,ntc,Inf,loss,78,0.1,-70,1,9.90268320008181,sure,1,target,light,left
114,1,29,ntc,Inf,loss,54,0.63,-20,0,3.6058800000464544,gamble,1,target,light,right
114,1,30,ntc,Inf,loss,51,0.39,-8,0,5.139850400038995,NA,NA,catch_sure,light,NA
114,1,31,ntc,Inf,gain,89,0.71,63,0,8.724363300018013,NA,NA,target,light,NA
114,1,32,ntc,Inf,gain,70,0.39,27,1,3.812956399982795,NA,NA,target,light,NA
114,1,33,ntc,Inf,loss,26,0.3,-18,0,3.6422165000112727,NA,NA,target,light,NA
114,1,34,ntc,Inf,loss,45,0.14,-39,0,9.072775100008585,sure,1,target,light,left
114,1,35,ntc,Inf,loss,70,0.39,-43,0,4.624636500026099,NA,NA,target,light,NA
114,1,36,ntc,Inf,gain,52,0.24,12,1,7.979962200042792,NA,NA,target,light,NA
114,1,37,ntc,Inf,gain,33,0.69,3,1,3.7364767999388278,NA,NA,catch_gamble,light,NA
114,1,38,ntc,Inf,gain,78,0.51,40,0,5.421772799920291,NA,NA,target,light,NA
114,1,39,ntc,Inf,loss,83,0.51,-41,0,7.9116300999885425,sure,1,target,light,right
114,1,40,ntc,Inf,gain,86,0.5,43,0,5.889520399970934,NA,NA,target,light,NA
114,2,41,tc,1,gain,50,0.18,9,0,0.6463719999883324,gamble,1,target,light,left
114,2,42,tc,1,gain,71,0.54,38,0,0.7556923000374809,sure,1,target,light,right
114,2,43,tc,1,gain,89,0.71,63,0,0.6236669999780133,sure,0,target,light,right
114,2,44,tc,1,gain,46,0.39,18,NA,NA,NA,NA,target,light,NA
114,2,45,tc,1,gain,26,0.3,8,0,0.5235346999252215,gamble,0,target,light,left
114,2,46,tc,1,loss,76,0.34,-50,0,0.49147190002258867,NA,NA,target,light,NA
114,2,47,tc,1,loss,40,0.24,-30,1,0.6574384999694303,sure,0,target,light,right
114,2,48,tc,1,gain,74,0.53,39,0,0.47073369997087866,sure,0,target,light,right
114,2,49,tc,1,gain,53,0.38,20,0,0.5113548000808805,gamble,0,target,light,left
114,2,50,tc,1,gain,80,0.4,53,0,0.588557600043714,sure,0,catch_sure,light,left
114,2,51,tc,1,loss,45,0.14,-39,1,0.6372453999938443,sure,0,target,light,right
114,2,52,tc,1,gain,47,0.51,24,1,0.6505020000040531,NA,NA,target,light,NA
114,2,53,tc,1,loss,33,0.69,-30,1,0.6744638999225572,NA,NA,catch_gamble,light,NA
114,2,54,tc,1,loss,80,0.4,-27,0,0.8930708999978378,NA,NA,catch_sure,light,NA
114,2,55,tc,1,gain,45,0.14,6,0,0.9770198999904096,NA,NA,target,light,NA
114,2,56,tc,1,loss,22,0.34,-15,1,0.6030394999543205,gamble,0,target,light,left
114,2,57,tc,1,gain,54,0.63,34,0,0.606991000007838,sure,0,target,light,right
114,2,58,tc,1,loss,72,0.29,-51,0,0.7555813000071794,gamble,1,target,light,left
114,2,59,tc,1,gain,21,0.28,6,0,0.720180100062862,gamble,1,target,light,left
114,2,60,tc,1,loss,26,0.11,-3,0,0.8794956000056118,NA,NA,catch_sure,light,NA
114,2,61,tc,1,loss,56,0.1,-50,0,0.6494152001105249,gamble,1,target,light,right
114,2,62,tc,1,gain,50,0.2,10,0,0.8526763000991195,gamble,1,target,light,left
114,2,63,tc,1,gain,35,0.26,9,1,0.5766529000829905,NA,NA,target,light,NA
114,2,64,tc,1,loss,85,0.39,-52,1,0.6632693000137806,sure,1,target,light,left
114,2,65,tc,1,loss,55,0.64,-20,1,0.577207800000906,NA,NA,target,light,NA
114,2,66,tc,1,gain,64,0.48,31,0,0.8071626999881119,sure,1,target,light,left
114,2,67,tc,1,gain,35,0.45,16,0,0.518464200082235,NA,NA,target,light,NA
114,2,68,tc,1,loss,64,0.67,-21,1,0.5957410999108106,sure,1,target,light,left
114,2,69,tc,1,loss,69,0.34,-46,0,0.7776637000497431,sure,0,target,light,left
114,2,70,tc,1,gain,33,0.65,21,1,0.5536156999878585,gamble,0,target,light,left
114,2,71,tc,1,loss,51,0.39,-8,NA,NA,NA,NA,catch_sure,light,NA
114,2,72,tc,1,gain,69,0.34,23,0,0.6108580000000075,sure,0,target,light,right
114,2,73,tc,1,loss,71,0.76,-17,0,0.7974848999874666,gamble,1,target,light,right
114,2,74,tc,1,loss,52,0.27,-38,1,0.9260846999241039,sure,1,target,light,right
114,2,75,tc,1,loss,87,0.34,-78,NA,NA,NA,NA,catch_gamble,light,NA
114,2,76,tc,1,gain,78,0.52,41,0,0.6459900999907404,sure,0,target,light,right
114,2,77,tc,1,gain,72,0.29,21,0,0.552656100015156,sure,0,target,light,right
114,2,78,tc,1,loss,39,0.41,-23,1,0.8298982999986038,sure,1,target,light,right
114,2,79,tc,1,loss,71,0.54,-33,0,0.679880200070329,sure,1,target,light,right
114,2,80,tc,1,loss,30,0.41,-18,0,0.7558490999508649,gamble,1,target,light,left
114,3,81,ntc,Inf,gain,51,0.39,43,0,3.4698761999607086,NA,NA,catch_sure,light,NA
114,3,82,ntc,Inf,loss,47,0.51,-23,1,2.7237390000373125,sure,1,target,light,left
114,3,83,ntc,Inf,gain,32,0.58,19,1,1.5150571999838576,sure,1,target,light,left
114,3,84,ntc,Inf,loss,35,0.45,-19,0,5.548290200065821,sure,1,target,light,right
114,3,85,ntc,Inf,loss,45,0.46,-24,1,4.031559400027618,gamble,1,target,light,right
114,3,86,ntc,Inf,gain,89,0.48,43,1,1.9967894000001252,gamble,1,target,light,right
114,3,87,ntc,Inf,loss,81,0.46,-44,0,2.938749899971299,sure,1,target,light,left
114,3,88,ntc,Inf,loss,85,0.12,-75,0,3.534005200024694,sure,1,target,light,right
114,3,89,ntc,Inf,loss,82,0.35,-53,0,3.62921079993248,sure,1,target,light,left
114,3,90,ntc,Inf,gain,26,0.11,23,0,2.5644432000117376,sure,1,catch_sure,light,right
114,3,91,ntc,Inf,loss,79,0.25,-59,0,2.7430419999873266,sure,1,target,light,right
114,3,92,ntc,Inf,gain,32,0.36,12,1,2.193086300045252,NA,NA,target,light,NA
114,3,93,ntc,Inf,gain,69,0.34,23,0,2.028307699947618,sure,1,target,light,left
114,3,94,ntc,Inf,gain,44,0.2,9,0,3.1855447000125423,sure,1,target,light,right
114,3,95,ntc,Inf,gain,78,0.28,22,0,2.754132300033234,gamble,1,target,light,left
114,3,96,ntc,Inf,loss,33,0.69,-30,1,2.992708700010553,sure,1,catch_gamble,light,right
114,3,97,ntc,Inf,gain,83,0.51,42,0,1.4266580999828875,sure,1,target,light,right
114,3,98,ntc,Inf,loss,76,0.34,-50,0,3.6352353000547737,sure,1,target,light,right
114,3,99,ntc,Inf,loss,50,0.18,-41,0,2.9764360999688506,NA,NA,target,light,NA
114,3,100,ntc,Inf,loss,52,0.24,-40,0,3.8070559999905527,sure,1,target,light,right
114,3,101,ntc,Inf,loss,32,0.58,-13,1,1.1410065999953076,sure,1,target,light,left
114,3,102,ntc,Inf,gain,22,0.39,9,1,3.8835775000043213,sure,1,target,light,left
114,3,103,ntc,Inf,gain,38,0.43,16,0,2.5281821999233216,sure,1,target,light,right
114,3,104,ntc,Inf,loss,67,0.1,-38,0,2.3301121999975294,gamble,1,catch_sure,light,left
114,3,105,ntc,Inf,gain,71,0.78,55,1,1.2266851000022143,sure,1,target,light,left
114,3,106,ntc,Inf,loss,71,0.54,-33,1,1.9346474999329075,sure,1,target,light,right
114,3,107,ntc,Inf,gain,47,0.29,14,0,2.258602499961853,gamble,1,target,light,left
114,3,108,ntc,Inf,gain,84,0.38,32,0,2.3944908999837935,NA,NA,target,light,NA
114,3,109,ntc,Inf,loss,71,0.78,-16,0,2.801782700000331,gamble,1,target,light,right
114,3,110,ntc,Inf,loss,47,0.29,-33,0,7.271043399930932,NA,NA,target,light,NA
114,3,111,ntc,Inf,loss,65,0.59,-27,1,5.394908999907784,NA,NA,target,light,NA
114,3,112,ntc,Inf,gain,86,0.39,34,0,1.7228406999493018,NA,NA,target,light,NA
114,3,113,ntc,Inf,gain,78,0.1,8,0,4.137471100082621,NA,NA,target,light,NA
114,3,114,ntc,Inf,loss,32,0.36,-20,0,7.698009200044908,NA,NA,target,light,NA
114,3,115,ntc,Inf,gain,30,0.41,12,0,3.9166025000158697,NA,NA,target,light,NA
114,3,116,ntc,Inf,gain,35,0.45,16,0,6.771858599968255,NA,NA,target,light,NA
114,3,117,ntc,Inf,loss,88,0.25,-66,0,4.385732599999756,NA,NA,target,light,NA
114,3,118,ntc,Inf,loss,71,0.76,-17,1,1.7476563999662176,NA,NA,target,light,NA
114,3,119,ntc,Inf,gain,79,0.25,20,0,3.1436385000124574,NA,NA,target,light,NA
114,3,120,ntc,Inf,gain,53,0.38,20,0,1.9168785000219941,NA,NA,target,light,NA
114,4,121,tc,1,gain,87,0.34,9,1,0.8587947000050917,sure,1,catch_gamble,light,right
114,4,122,tc,1,loss,42,0.57,-18,0,0.7527954999823123,sure,1,target,light,right
114,4,123,tc,1,gain,86,0.39,34,0,0.6054300999967381,gamble,0,target,light,left
114,4,124,tc,1,gain,57,0.45,26,0,0.3886595999356359,sure,0,target,light,right
114,4,125,tc,1,loss,64,0.66,-22,1,0.7252728000748903,sure,1,target,light,right
114,4,126,tc,1,gain,70,0.15,10,0,0.8392657999647781,sure,1,target,light,right
114,4,127,tc,1,gain,70,0.39,27,0,0.5293012999463826,gamble,0,target,light,left
114,4,128,tc,1,gain,52,0.27,14,1,0.6611497000558302,gamble,0,target,light,left
114,4,129,tc,1,gain,88,0.25,22,0,0.636410600040108,sure,1,target,light,right
114,4,130,tc,1,loss,78,0.1,-70,0,0.9690548001090065,sure,1,target,light,right
114,4,131,tc,1,loss,78,0.52,-37,1,0.799695200053975,sure,1,target,light,right
114,4,132,tc,1,loss,50,0.2,-40,0,0.8503409000113606,sure,1,target,light,right
114,4,133,tc,1,gain,85,0.12,10,0,0.5469163999659941,gamble,0,target,light,left
114,4,134,tc,1,loss,44,0.2,-35,0,0.6961818999843672,sure,0,target,light,right
114,4,135,tc,1,gain,81,0.46,37,0,0.6248357999138534,sure,0,target,light,right
114,4,136,tc,1,gain,38,0.43,16,0,0.8387867999263108,sure,1,target,light,right
114,4,137,tc,1,loss,22,0.39,-13,NA,NA,NA,NA,target,light,NA
114,4,138,tc,1,gain,22,0.39,9,0,0.5780345000093803,sure,0,target,light,right
114,4,139,tc,1,gain,55,0.64,35,0,0.5533093999838457,sure,0,target,light,right
114,4,140,tc,1,gain,88,0.29,26,1,0.8085477000568062,gamble,1,target,light,left
114,4,141,tc,1,loss,51,0.35,-33,1,0.6551848000381142,sure,0,target,light,right
114,4,142,tc,1,gain,22,0.17,4,0,0.4791666000382975,sure,0,target,light,right
114,4,143,tc,1,gain,32,0.58,19,0,0.453060399973765,sure,0,target,light,right
114,4,144,tc,1,loss,69,0.21,-55,0,0.6904368000105023,gamble,1,target,light,left
114,4,145,tc,1,gain,66,0.4,26,0,0.5750235000159591,sure,0,target,light,right
114,4,146,tc,1,loss,50,0.18,-41,1,0.7729636000003666,sure,1,target,light,right
114,4,147,tc,1,gain,22,0.34,7,1,0.5242392000509426,gamble,0,target,light,left
114,4,148,tc,1,loss,78,0.28,-56,0,0.8595329000381753,gamble,1,target,light,left
114,4,149,tc,1,gain,64,0.66,42,1,0.4554873000597581,gamble,0,target,light,left
114,4,150,tc,1,loss,83,0.51,-41,1,0.5401004999876022,sure,1,target,light,left
114,4,151,tc,1,gain,32,0.36,12,0,0.7967648999765515,gamble,1,target,light,left
114,4,152,tc,1,loss,71,0.78,-16,1,0.6966955000534654,sure,1,target,light,right
114,4,153,tc,1,loss,70,0.15,-60,0,0.7019345000153407,sure,1,target,light,left
114,4,154,tc,1,loss,33,0.65,-12,1,0.5425520000280812,sure,0,target,light,right
114,4,155,tc,1,loss,22,0.17,-18,1,0.6878416000399739,sure,1,target,light,right
114,4,156,tc,1,loss,67,0.1,-38,NA,NA,NA,NA,catch_sure,light,NA
114,4,157,tc,1,loss,84,0.38,-52,1,0.6984678999288008,sure,1,target,light,right
114,4,158,tc,1,loss,66,0.4,-40,1,0.5563972999807447,gamble,0,target,light,left
114,4,159,tc,1,gain,56,0.1,6,0,0.4698204998858273,sure,0,target,light,right
114,4,160,tc,1,loss,65,0.59,-27,1,0.42965549998916686,NA,NA,target,light,NA
114,5,161,ntc,Inf,gain,51,0.35,18,1,2.324175599962473,NA,NA,target,light,NA
114,5,162,ntc,Inf,loss,33,0.65,-12,1,1.3867708999896422,NA,NA,target,light,NA
114,5,163,ntc,Inf,gain,87,0.34,9,1,2.2240597000345588,NA,NA,catch_gamble,light,NA
114,5,164,ntc,Inf,loss,69,0.21,-55,0,5.045355599955656,NA,NA,target,light,NA
114,5,165,ntc,Inf,loss,80,0.4,-27,0,2.3078622000757605,NA,NA,catch_sure,light,NA
114,5,166,ntc,Inf,loss,33,0.54,-15,1,1.8864536000182852,NA,NA,target,light,NA
114,5,167,ntc,Inf,gain,50,0.18,9,1,3.875712599954568,NA,NA,target,light,NA
114,5,168,ntc,Inf,gain,47,0.51,24,0,3.916968100005761,NA,NA,target,light,NA
114,5,169,ntc,Inf,loss,86,0.5,-43,1,6.250949699897319,sure,1,target,light,right
114,5,170,ntc,Inf,gain,82,0.35,29,1,4.237479700008407,NA,NA,target,light,NA
114,5,171,ntc,Inf,loss,69,0.1,-62,0,2.1280508999479935,NA,NA,target,light,NA
114,5,172,ntc,Inf,loss,57,0.45,-31,0,3.8546953999903053,NA,NA,target,light,NA
114,5,173,ntc,Inf,gain,55,0.64,35,1,2.020591099979356,NA,NA,target,light,NA
114,5,174,ntc,Inf,gain,22,0.17,4,0,1.9031747999833897,NA,NA,target,light,NA
114,5,175,ntc,Inf,loss,38,0.43,-22,0,8.025765600032173,NA,NA,target,light,NA
114,5,176,ntc,Inf,gain,45,0.46,21,0,9.777711099945009,gamble,1,target,light,left
114,5,177,ntc,Inf,loss,35,0.26,-26,0,3.863534699892625,NA,NA,target,light,NA
114,5,178,ntc,Inf,loss,55,0.64,-20,1,1.4981820998946205,NA,NA,target,light,NA
114,5,179,ntc,Inf,gain,65,0.59,38,1,1.2697316000703722,NA,NA,target,light,NA
114,5,180,ntc,Inf,loss,72,0.29,-51,0,5.430707700084895,NA,NA,target,light,NA
114,5,181,ntc,Inf,gain,88,0.25,22,1,3.56076739996206,NA,NA,target,light,NA
114,5,182,ntc,Inf,loss,73,0.51,-61,1,2.735192700056359,NA,NA,catch_gamble,light,NA
114,5,183,ntc,Inf,loss,40,0.24,-30,0,4.491126100067049,NA,NA,target,light,NA
114,5,184,ntc,Inf,loss,86,0.39,-52,0,2.941688199993223,NA,NA,target,light,NA
114,5,185,ntc,Inf,gain,66,0.4,26,1,2.4336240999400616,NA,NA,target,light,NA
114,5,186,ntc,Inf,gain,31,0.2,6,1,3.1988817000528798,NA,NA,target,light,NA
114,5,187,ntc,Inf,gain,33,0.65,21,1,1.881470900028944,NA,NA,target,light,NA
114,5,188,ntc,Inf,loss,78,0.28,-56,0,2.376760600018315,NA,NA,target,light,NA
114,5,189,ntc,Inf,gain,57,0.45,26,1,3.8974285000003874,NA,NA,target,light,NA
114,5,190,ntc,Inf,gain,78,0.52,41,0,2.620645000017248,NA,NA,target,light,NA
114,5,191,ntc,Inf,gain,35,0.26,9,1,3.5472305000294,gamble,1,target,light,left
114,5,192,ntc,Inf,loss,53,0.38,-33,0,3.2737550999736413,NA,NA,target,light,NA
114,5,193,ntc,Inf,loss,31,0.2,-25,0,3.2210436000023037,NA,NA,target,light,NA
114,5,194,ntc,Inf,loss,84,0.38,-52,1,2.9555722000077367,NA,NA,target,light,NA
114,5,195,ntc,Inf,loss,43,0.35,-28,0,3.1081862000282854,NA,NA,target,light,NA
114,5,196,ntc,Inf,gain,81,0.46,37,1,1.7660839000018314,NA,NA,target,light,NA
114,5,197,ntc,Inf,gain,74,0.53,39,1,2.664638699963689,NA,NA,target,light,NA
114,5,198,ntc,Inf,gain,71,0.76,54,1,2.5458705000346527,NA,NA,target,light,NA
114,5,199,ntc,Inf,loss,78,0.52,-37,0,3.477908600005321,NA,NA,target,light,NA
114,5,200,ntc,Inf,gain,80,0.4,53,0,1.9551891000010073,NA,NA,catch_sure,light,NA
114,6,201,tc,1,loss,86,0.5,-43,1,0.668570899986662,sure,1,target,light,right
114,6,202,tc,1,gain,21,0.2,4,0,0.7244807999813929,sure,1,target,light,left
114,6,203,tc,1,gain,33,0.69,3,1,0.7384846999775618,sure,1,catch_gamble,light,right
114,6,204,tc,1,gain,83,0.51,42,1,0.640471399994567,gamble,0,target,light,left
114,6,205,tc,1,loss,52,0.24,-40,0,0.6090816999785602,gamble,1,target,light,left
114,6,206,tc,1,loss,70,0.39,-43,1,0.6570340999169275,gamble,0,target,light,left
114,6,207,tc,1,gain,64,0.67,43,1,0.703046000096947,sure,1,target,light,right
114,6,208,tc,1,gain,85,0.39,33,0,0.47965260001365095,sure,0,target,light,right
114,6,209,tc,1,gain,69,0.21,14,0,0.4682859000749886,sure,0,target,light,right
114,6,210,tc,1,loss,31,0.2,-25,1,0.6875670999288559,gamble,0,target,light,right
114,6,211,tc,1,gain,26,0.11,23,0,0.4541482999920845,sure,0,catch_sure,light,right
114,6,212,tc,1,gain,71,0.76,54,1,0.5787467999616638,gamble,0,target,light,left
114,6,213,tc,1,gain,67,0.1,29,0,0.6380368999671191,sure,0,catch_sure,light,left
114,6,214,tc,1,gain,65,0.59,38,0,0.417320599895902,sure,0,target,light,right
114,6,215,tc,1,gain,30,0.41,12,1,0.6412828000029549,sure,1,target,light,right
114,6,216,tc,1,loss,85,0.12,-75,0,0.6732271999353543,sure,1,target,light,right
114,6,217,tc,1,loss,79,0.25,-59,0,0.6019233000697568,gamble,1,target,light,right
114,6,218,tc,1,gain,78,0.1,8,0,0.7171240000752732,sure,0,target,light,left
114,6,219,tc,1,loss,43,0.35,-28,0,0.8638125999132171,sure,0,target,light,right
114,6,220,tc,1,loss,57,0.45,-31,1,0.8643729999894276,sure,1,target,light,left
114,6,221,tc,1,loss,21,0.2,-17,1,0.8843139000236988,sure,1,target,light,left
114,6,222,tc,1,gain,51,0.39,43,1,0.7596310999942943,sure,1,catch_sure,light,left
114,6,223,tc,1,gain,36,0.65,23,0,0.9509641999611631,sure,1,target,light,right
114,6,224,tc,1,loss,89,0.71,-26,1,0.577524800086394,gamble,0,target,light,left
114,6,225,tc,1,loss,86,0.39,-52,1,0.6621615999611095,gamble,0,target,light,left
114,6,226,tc,1,loss,88,0.29,-62,NA,NA,NA,NA,target,light,NA
114,6,227,tc,1,loss,35,0.26,-26,0,0.6820171000435948,gamble,1,target,light,left
114,6,228,tc,1,gain,76,0.34,26,0,0.455328399897553,sure,0,target,light,right
114,6,229,tc,1,loss,83,0.52,-40,1,0.5926196000073105,gamble,0,target,light,left
114,6,230,tc,1,loss,33,0.54,-15,1,0.497233200003393,gamble,0,target,light,right
114,6,231,tc,1,loss,52,0.54,-44,1,0.5658803000114858,sure,1,catch_gamble,light,right
114,6,232,tc,1,gain,78,0.28,22,0,0.5651476999046281,sure,0,target,light,right
114,6,233,tc,1,gain,51,0.35,18,1,0.6377587000606582,sure,1,target,light,left
114,6,234,tc,1,gain,82,0.35,29,0,0.6310491000767797,sure,0,target,light,right
114,6,235,tc,1,loss,46,0.39,-28,1,0.45699749991763383,sure,0,target,light,right
114,6,236,tc,1,gain,40,0.85,34,1,0.4509408000158146,gamble,0,target,light,left
114,6,237,tc,1,loss,81,0.46,-44,1,0.4969189000548795,gamble,0,target,light,left
114,6,238,tc,1,loss,78,0.51,-38,1,0.5975024999352172,gamble,0,target,light,left
114,6,239,tc,1,gain,78,0.28,22,0,0.6374652000376955,gamble,1,target,light,left
114,6,240,tc,1,loss,64,0.48,-33,1,0.5920796999707818,gamble,0,target,light,left
114,7,241,ntc,Inf,gain,78,0.28,22,1,6.435064399964176,NA,NA,target,light,NA
114,7,242,ntc,Inf,gain,67,0.1,29,0,1.9496589000336826,NA,NA,catch_sure,light,NA
114,7,243,ntc,Inf,loss,52,0.27,-38,1,3.3955594999715686,NA,NA,target,light,NA
114,7,244,ntc,Inf,gain,85,0.12,10,0,2.322189799975604,NA,NA,target,light,NA
114,7,245,ntc,Inf,gain,40,0.24,10,1,7.507410399965011,NA,NA,target,light,NA
114,7,246,ntc,Inf,loss,70,0.15,-60,1,6.6366631999844685,NA,NA,target,light,NA
114,7,247,ntc,Inf,loss,30,0.41,-18,1,2.313931899960153,NA,NA,target,light,NA
114,7,248,ntc,Inf,loss,51,0.35,-33,0,5.109828700078651,NA,NA,target,light,NA
114,7,249,ntc,Inf,loss,39,0.41,-23,1,1.883786299964413,NA,NA,target,light,NA
114,7,250,ntc,Inf,loss,22,0.39,-13,0,2.127712699933909,NA,NA,target,light,NA
114,7,251,ntc,Inf,loss,64,0.48,-33,1,2.254259999957867,NA,NA,target,light,NA
114,7,252,ntc,Inf,gain,43,0.35,15,0,5.273539200075902,sure,1,target,light,left
114,7,253,ntc,Inf,gain,69,0.21,14,0,3.0167372000869364,sure,1,target,light,right
114,7,254,ntc,Inf,loss,50,0.2,-40,1,4.496026000007987,gamble,1,target,light,left
114,7,255,ntc,Inf,gain,64,0.48,31,0,1.7292717000236735,gamble,1,target,light,left
114,7,256,ntc,Inf,loss,89,0.48,-46,1,3.0518966000527143,sure,1,target,light,right
114,7,257,ntc,Inf,loss,69,0.34,-46,0,4.770454699988477,sure,1,target,light,right
114,7,258,ntc,Inf,loss,66,0.4,-40,1,11.740451300051063,sure,1,target,light,left
114,7,259,ntc,Inf,gain,88,0.29,26,0,0.897587800049223,NA,NA,target,light,NA
114,7,260,ntc,Inf,loss,36,0.65,-13,1,0.8308936000103131,gamble,0,target,light,left
114,7,261,ntc,Inf,gain,40,0.85,34,1,1.346797699923627,sure,1,target,light,right
114,7,262,ntc,Inf,gain,76,0.34,26,0,1.33205110009294,gamble,1,target,light,left
114,7,263,ntc,Inf,gain,45,0.14,6,0,2.14270519989077,NA,NA,target,light,NA
114,7,264,ntc,Inf,loss,74,0.53,-35,1,1.7939621999394149,sure,1,target,light,right
114,7,265,ntc,Inf,gain,50,0.2,10,0,1.5025260000256822,sure,1,target,light,right
114,7,266,ntc,Inf,gain,42,0.57,24,1,1.0977568000089377,gamble,1,target,light,left
114,7,267,ntc,Inf,gain,72,0.29,21,0,2.3277445998974144,sure,1,target,light,right
114,7,268,ntc,Inf,gain,83,0.52,43,1,1.7623354000970721,sure,1,target,light,right
114,7,269,ntc,Inf,loss,64,0.66,-22,1,0.8395887999795377,NA,NA,target,light,NA
114,7,270,ntc,Inf,gain,52,0.54,8,1,2.3915170000400394,NA,NA,catch_gamble,light,NA
114,7,271,ntc,Inf,loss,56,0.1,-50,0,5.983410099986941,sure,1,target,light,right
114,7,272,ntc,Inf,loss,89,0.71,-26,1,3.5887359000043944,NA,NA,target,light,NA
114,7,273,ntc,Inf,loss,83,0.52,-40,1,2.9812877000076696,NA,NA,target,light,NA
114,7,274,ntc,Inf,loss,40,0.85,-6,1,0.683226800058037,gamble,0,target,light,left
114,7,275,ntc,Inf,gain,46,0.39,18,0,2.72313319996465,NA,NA,target,light,NA
114,7,276,ntc,Inf,loss,42,0.57,-18,1,2.2511001999955624,NA,NA,target,light,NA
114,7,277,ntc,Inf,gain,52,0.27,14,0,2.350987400044687,sure,1,target,light,right
114,7,278,ntc,Inf,gain,64,0.67,43,1,1.3502344000153244,NA,NA,target,light,NA
114,7,279,ntc,Inf,gain,21,0.28,6,0,3.027483500074595,NA,NA,target,light,NA
114,7,280,ntc,Inf,loss,44,0.2,-35,0,2.2174275000579655,sure,1,target,light,right
114,8,281,tc,1,gain,33,0.54,18,1,0.49922090000472963,gamble,0,target,light,left
114,8,282,tc,1,gain,52,0.54,8,1,0.5432001000735909,gamble,0,catch_gamble,light,left
114,8,283,tc,1,gain,78,0.51,40,1,0.6517796000698581,gamble,1,target,light,left
114,8,284,tc,1,loss,74,0.53,-35,1,0.7798278999980539,gamble,0,target,light,right
114,8,285,tc,1,gain,39,0.41,16,0,0.9110524000134319,sure,1,target,light,right
114,8,286,tc,1,gain,52,0.24,12,0,0.4177176000084728,sure,0,target,light,right
114,8,287,tc,1,gain,47,0.29,14,0,0.6503045000135899,sure,0,target,light,right
114,8,288,tc,1,loss,82,0.35,-53,1,0.5775713999755681,gamble,0,target,light,left
114,8,289,tc,1,loss,40,0.85,-6,1,0.714203399955295,gamble,0,target,light,left
114,8,290,tc,1,gain,86,0.5,43,0,0.45809089997783303,sure,0,target,light,right
114,8,291,tc,1,loss,26,0.3,-18,1,0.8147976999171078,gamble,1,target,light,left
114,8,292,tc,1,loss,88,0.25,-66,1,0.6894152000313625,sure,0,target,light,right
114,8,293,tc,1,loss,36,0.65,-13,1,0.4479912999086082,gamble,0,target,light,left
114,8,294,tc,1,loss,89,0.48,-46,1,0.4299525999231264,gamble,0,target,light,right
114,8,295,tc,1,loss,32,0.58,-13,1,0.42460080003365874,gamble,0,target,light,left
114,8,296,tc,1,loss,69,0.1,-62,0,0.6418844999279827,gamble,0,target,light,right
114,8,297,tc,1,gain,84,0.38,32,0,0.3938167999731377,sure,0,target,light,right
114,8,298,tc,1,gain,45,0.46,21,1,0.5164277000585571,gamble,0,target,light,left
114,8,299,tc,1,gain,42,0.57,24,1,0.5290406999411061,gamble,0,target,light,left
114,8,300,tc,1,gain,40,0.24,10,0,0.6083508000010625,gamble,1,target,light,left
114,8,301,tc,1,gain,71,0.78,55,1,0.5629815999418497,gamble,0,target,light,left
114,8,302,tc,1,gain,73,0.51,12,0,0.6369423000141978,sure,0,catch_gamble,light,right
114,8,303,tc,1,loss,32,0.36,-20,0,0.9569256999529898,gamble,1,target,light,right
114,8,304,tc,1,loss,38,0.43,-22,1,0.48622610000893474,gamble,0,target,light,left
114,8,305,tc,1,gain,69,0.1,7,0,0.7241048000287265,gamble,1,target,light,left
114,8,306,tc,1,loss,73,0.51,-61,1,0.6727355999173597,gamble,0,catch_gamble,light,right
114,8,307,tc,1,loss,47,0.51,-23,0,0.7460171000566334,sure,1,target,light,right
114,8,308,tc,1,loss,54,0.63,-20,1,0.5193270000163466,gamble,0,target,light,left
114,8,309,tc,1,gain,89,0.48,43,1,0.49862700002267957,gamble,0,target,light,left
114,8,310,tc,1,loss,35,0.45,-19,1,0.8105352000566199,gamble,1,target,light,left
114,8,311,tc,1,gain,43,0.35,15,0,0.5178304999135435,sure,0,target,light,left
114,8,312,tc,1,loss,21,0.28,-15,0,0.7891552000073716,gamble,1,target,light,left
114,8,313,tc,1,gain,44,0.2,9,1,0.5651737001026049,sure,0,target,light,left
114,8,314,tc,1,gain,83,0.52,43,0,0.4983976000221446,sure,0,target,light,right
114,8,315,tc,1,gain,79,0.25,20,0,0.4623301998944953,NA,NA,target,light,NA
114,8,316,tc,1,gain,31,0.2,6,0,0.4509568000212312,sure,0,target,light,right
114,8,317,tc,1,loss,78,0.28,-56,NA,NA,NA,NA,target,light,NA
114,8,318,tc,1,loss,45,0.46,-24,0,0.6302441000007093,sure,1,target,light,right
114,8,319,tc,1,loss,47,0.29,-33,1,0.5028346999315545,sure,1,target,light,left
114,8,320,tc,1,loss,53,0.38,-33,1,0.3987869000993669,NA,NA,target,light,NA
115,1,1,ntc,Inf,loss,43,0.35,-28,1,1.4750289998482913,sure,1,target,dark,left
115,1,2,ntc,Inf,gain,21,0.2,4,0,2.763657500036061,gamble,1,target,dark,right
115,1,3,ntc,Inf,loss,88,0.25,-66,1,2.457611500052735,sure,1,target,dark,left
115,1,4,ntc,Inf,gain,31,0.2,6,1,2.516174599993974,sure,1,target,dark,right
115,1,5,ntc,Inf,loss,70,0.39,-43,0,1.4094014998991042,sure,0,target,dark,right
115,1,6,ntc,Inf,loss,69,0.1,-62,1,1.218004500027746,gamble,0,target,dark,right
115,1,7,ntc,Inf,loss,52,0.24,-40,1,2.9486124999821186,gamble,1,target,dark,right
115,1,8,ntc,Inf,loss,52,0.27,-38,0,3.027908599935472,sure,1,target,dark,left
115,1,9,ntc,Inf,gain,39,0.41,16,1,2.8031753001268953,sure,1,target,dark,right
115,1,10,ntc,Inf,loss,33,0.54,-15,1,1.3764074000064284,gamble,0,target,dark,right
115,1,11,ntc,Inf,gain,56,0.1,6,0,4.95100130001083,gamble,1,target,dark,left
115,1,12,ntc,Inf,gain,21,0.28,6,1,2.072902000043541,gamble,1,target,dark,right
115,1,13,ntc,Inf,loss,80,0.4,-27,0,2.5162297000642866,gamble,1,catch_sure,dark,right
115,1,14,ntc,Inf,gain,80,0.4,53,0,3.2060660999268293,sure,1,catch_sure,dark,left
115,1,15,ntc,Inf,loss,21,0.28,-15,1,1.5560794998891652,sure,1,target,dark,left
115,1,16,ntc,Inf,loss,38,0.43,-22,1,1.6879753000102937,sure,1,target,dark,left
115,1,17,ntc,Inf,loss,86,0.5,-43,1,3.1319514999631792,sure,0,target,dark,right
115,1,18,ntc,Inf,gain,40,0.85,34,0,2.276452299905941,sure,1,target,dark,left
115,1,19,ntc,Inf,loss,30,0.41,-18,0,2.8657595000695437,sure,1,target,dark,right
115,1,20,ntc,Inf,loss,45,0.46,-24,1,1.5317119001410902,sure,1,target,dark,left
115,1,21,ntc,Inf,gain,52,0.27,14,0,4.028300100006163,gamble,1,target,dark,right
115,1,22,ntc,Inf,gain,64,0.67,43,1,2.961646899813786,sure,1,target,dark,left
115,1,23,ntc,Inf,gain,83,0.51,42,1,3.9681086998898536,sure,1,target,dark,right
115,1,24,ntc,Inf,loss,35,0.45,-19,0,1.8572431998327374,gamble,1,target,dark,right
115,1,25,ntc,Inf,gain,57,0.45,26,1,2.701269800076261,gamble,1,target,dark,left
115,1,26,ntc,Inf,gain,36,0.65,23,1,2.467851399909705,gamble,1,target,dark,right
115,1,27,ntc,Inf,loss,22,0.39,-13,1,2.4391155999619514,sure,1,target,dark,left
115,1,28,ntc,Inf,gain,22,0.17,4,1,4.593061999883503,gamble,1,target,dark,right
115,1,29,ntc,Inf,gain,71,0.54,38,1,1.374353799968958,sure,1,target,dark,left
115,1,30,ntc,Inf,gain,78,0.52,41,0,3.567572799976915,gamble,1,target,dark,right
115,1,31,ntc,Inf,loss,46,0.39,-28,0,1.692851899890229,gamble,1,target,dark,right
115,1,32,ntc,Inf,gain,83,0.52,43,1,1.2488094000145793,sure,1,target,dark,left
115,1,33,ntc,Inf,loss,82,0.35,-53,0,2.943411099957302,sure,1,target,dark,left
115,1,34,ntc,Inf,loss,35,0.26,-26,1,3.81264890008606,sure,1,target,dark,right
115,1,35,ntc,Inf,loss,74,0.53,-35,1,2.0352312999311835,sure,1,target,dark,left
115,1,36,ntc,Inf,gain,33,0.65,21,1,1.6605081998277456,gamble,1,target,dark,right
115,1,37,ntc,Inf,gain,54,0.63,34,1,1.4924083000514656,sure,1,target,dark,left
115,1,38,ntc,Inf,gain,76,0.34,26,0,1.955674699973315,sure,1,target,dark,left
115,1,39,ntc,Inf,loss,78,0.1,-70,1,4.292261000024155,sure,1,target,dark,left
115,1,40,ntc,Inf,gain,65,0.59,38,1,2.8995310000609607,gamble,1,target,dark,right
115,2,41,tc,1,loss,88,0.25,-66,NA,NA,NA,NA,target,dark,NA
115,2,42,tc,1,loss,47,0.51,-23,0,0.31738669984042645,NA,NA,target,dark,NA
115,2,43,tc,1,gain,21,0.28,6,0,0.3260184999089688,NA,NA,target,dark,NA
115,2,44,tc,1,loss,78,0.1,-70,1,0.41662689996883273,NA,NA,target,dark,NA
115,2,45,tc,1,gain,65,0.59,38,0,0.4092505001462996,NA,NA,target,dark,NA
115,2,46,tc,1,loss,30,0.41,-18,1,0.38455349998548627,NA,NA,target,dark,NA
115,2,47,tc,1,loss,66,0.4,-40,0,0.353186700027436,NA,NA,target,dark,NA
115,2,48,tc,1,gain,33,0.65,21,0,0.4931139999534935,NA,NA,target,dark,NA
115,2,49,tc,1,gain,56,0.1,6,1,0.3244296000339091,sure,0,target,dark,left
115,2,50,tc,1,gain,31,0.2,6,0,0.3337576000485569,NA,NA,target,dark,NA
115,2,51,tc,1,loss,54,0.63,-20,1,0.47966559999622405,NA,NA,target,dark,NA
115,2,52,tc,1,loss,88,0.29,-62,1,0.38294650008901954,NA,NA,target,dark,NA
115,2,53,tc,1,gain,72,0.29,21,1,0.3608530000783503,NA,NA,target,dark,NA
115,2,54,tc,1,loss,22,0.17,-18,0,0.5721787000074983,gamble,0,target,dark,left
115,2,55,tc,1,gain,51,0.39,43,1,0.46482059988193214,gamble,0,catch_sure,dark,right
115,2,56,tc,1,gain,50,0.18,9,0,0.5160464998334646,gamble,1,target,dark,left
115,2,57,tc,1,loss,69,0.1,-62,0,0.6779960999265313,gamble,0,target,dark,right
115,2,58,tc,1,loss,89,0.71,-26,1,0.5026147000025958,gamble,0,target,dark,right
115,2,59,tc,1,gain,32,0.58,19,0,0.629929999820888,sure,0,target,dark,left
115,2,60,tc,1,gain,89,0.48,43,0,0.6351631998550147,sure,0,target,dark,left
115,2,61,tc,1,loss,33,0.65,-12,1,0.5758593000937253,sure,0,target,dark,left
115,2,62,tc,1,loss,45,0.14,-39,1,0.6404657999519259,sure,0,target,dark,left
115,2,63,tc,1,loss,78,0.28,-56,1,0.8344292000401765,sure,1,target,dark,left
115,2,64,tc,1,loss,52,0.27,-38,1,0.7763606999069452,sure,0,target,dark,left
115,2,65,tc,1,loss,53,0.38,-33,0,0.6843177999835461,gamble,1,target,dark,right
115,2,66,tc,1,gain,69,0.34,23,0,0.7916249998379499,gamble,1,target,dark,right
115,2,67,tc,1,gain,26,0.3,8,0,0.9395600000862032,sure,1,target,dark,left
115,2,68,tc,1,loss,82,0.35,-53,1,0.6461994999554008,sure,1,target,dark,left
115,2,69,tc,1,loss,86,0.39,-52,1,0.832792499801144,sure,1,target,dark,left
115,2,70,tc,1,gain,82,0.35,29,0,0.6860591999720782,sure,0,target,dark,right
115,2,71,tc,1,gain,22,0.39,9,1,0.6614033000078052,sure,1,target,dark,left
115,2,72,tc,1,loss,79,0.25,-59,1,0.9346129999030381,gamble,1,target,dark,right
115,2,73,tc,1,loss,69,0.34,-46,0,0.5005912999622524,sure,0,target,dark,right
115,2,74,tc,1,gain,51,0.35,18,0,0.47128290007822216,sure,0,target,dark,right
115,2,75,tc,1,gain,22,0.34,7,1,0.7198084997944534,sure,1,target,dark,right
115,2,76,tc,1,gain,79,0.25,20,0,0.6430944998282939,sure,0,target,dark,left
115,2,77,tc,1,gain,21,0.2,4,1,0.7084031999111176,sure,0,target,dark,right
115,2,78,tc,1,loss,42,0.57,-18,0,0.6363425999879837,sure,0,target,dark,right
115,2,79,tc,1,gain,87,0.34,9,1,0.6196169999893755,sure,1,catch_gamble,dark,right
115,2,80,tc,1,gain,57,0.45,26,0,0.9575577999930829,sure,1,target,dark,right
115,3,81,ntc,Inf,loss,47,0.29,-33,1,1.1979012999217957,gamble,1,target,dark,right
115,3,82,ntc,Inf,loss,71,0.76,-17,1,0.7071704999543726,gamble,0,target,dark,right
115,3,83,ntc,Inf,gain,71,0.78,55,1,0.7097596998792142,gamble,0,target,dark,right
115,3,84,ntc,Inf,gain,33,0.54,18,0,1.2157151999417692,gamble,1,target,dark,right
115,3,85,ntc,Inf,gain,72,0.29,21,0,1.6916402999777347,sure,1,target,dark,left
115,3,86,ntc,Inf,gain,64,0.66,42,1,1.6196028999984264,sure,1,target,dark,left
115,3,87,ntc,Inf,loss,70,0.15,-60,1,2.7574906998779625,gamble,1,target,dark,left
115,3,88,ntc,Inf,loss,33,0.69,-30,1,2.4201108999550343,gamble,1,catch_gamble,dark,right
115,3,89,ntc,Inf,loss,83,0.52,-40,1,2.5713837000075728,gamble,1,target,dark,right
115,3,90,ntc,Inf,gain,85,0.39,33,0,1.597964399959892,sure,1,target,dark,left
115,3,91,ntc,Inf,loss,89,0.48,-46,0,2.1045711000915617,gamble,1,target,dark,right
115,3,92,ntc,Inf,loss,78,0.28,-56,1,2.81315469997935,gamble,1,target,dark,right
115,3,93,ntc,Inf,loss,88,0.29,-62,0,1.1477053000126034,gamble,1,target,dark,right
115,3,94,ntc,Inf,gain,87,0.34,9,1,2.2489646999165416,gamble,1,catch_gamble,dark,right
115,3,95,ntc,Inf,gain,42,0.57,24,1,1.4409035998396575,sure,1,target,dark,left
115,3,96,ntc,Inf,loss,47,0.51,-23,1,1.708864700049162,sure,1,target,dark,left
115,3,97,ntc,Inf,loss,42,0.57,-18,0,0.9608328000176698,sure,0,target,dark,right
115,3,98,ntc,Inf,loss,86,0.39,-52,0,2.2073686998337507,sure,1,target,dark,left
115,3,99,ntc,Inf,loss,67,0.1,-38,0,1.2241126000881195,gamble,1,catch_sure,dark,left
115,3,100,ntc,Inf,loss,54,0.63,-20,0,1.107249200111255,sure,0,target,dark,left
115,3,101,ntc,Inf,loss,78,0.28,-56,1,1.3491920998785645,sure,1,target,dark,left
115,3,102,ntc,Inf,loss,22,0.17,-18,1,1.1071391000878066,sure,1,target,dark,right
115,3,103,ntc,Inf,gain,47,0.51,24,1,1.6044244999065995,sure,1,target,dark,left
115,3,104,ntc,Inf,gain,22,0.39,9,1,1.4636458999011666,gamble,1,target,dark,left
115,3,105,ntc,Inf,gain,78,0.28,22,1,1.1635950999334455,gamble,1,target,dark,right
115,3,106,ntc,Inf,gain,43,0.35,15,0,1.9035120999906212,sure,1,target,dark,right
115,3,107,ntc,Inf,loss,69,0.34,-46,1,2.372061900096014,sure,1,target,dark,right
115,3,108,ntc,Inf,loss,69,0.21,-55,1,2.1380425000097603,sure,1,target,dark,left
115,3,109,ntc,Inf,gain,47,0.29,14,1,2.023970700101927,gamble,1,target,dark,right
115,3,110,ntc,Inf,loss,57,0.45,-31,0,1.2952441000379622,sure,0,target,dark,right
115,3,111,ntc,Inf,gain,33,0.69,3,1,1.6745269000530243,gamble,1,catch_gamble,dark,right
115,3,112,ntc,Inf,gain,79,0.25,20,0,1.5364301998633891,sure,1,target,dark,right
115,3,113,ntc,Inf,gain,52,0.24,12,1,2.1683305001351982,gamble,1,target,dark,right
115,3,114,ntc,Inf,gain,35,0.45,16,1,1.7342405000235885,sure,1,target,dark,left
115,3,115,ntc,Inf,gain,78,0.1,8,0,4.161546099931002,gamble,1,target,dark,right
115,3,116,ntc,Inf,gain,44,0.2,9,1,1.7614706000313163,gamble,1,target,dark,right
115,3,117,ntc,Inf,loss,40,0.24,-30,1,2.3033748001325876,sure,1,target,dark,left
115,3,118,ntc,Inf,loss,83,0.51,-41,1,1.5586119999643415,sure,1,target,dark,left
115,3,119,ntc,Inf,gain,40,0.24,10,0,1.8786011999472976,sure,1,target,dark,left
115,3,120,ntc,Inf,gain,64,0.48,31,0,1.5238870999310166,gamble,1,target,dark,right
115,4,121,tc,1,gain,39,0.41,16,0,0.6032620999030769,sure,0,target,dark,left
115,4,122,tc,1,loss,84,0.38,-52,NA,NA,NA,NA,target,dark,NA
115,4,123,tc,1,loss,40,0.85,-6,1,0.5433222998399287,gamble,0,target,dark,right
115,4,124,tc,1,loss,64,0.67,-21,0,0.5285076999571174,sure,0,target,dark,left
115,4,125,tc,1,loss,21,0.28,-15,1,0.6951324001420289,sure,0,target,dark,right
115,4,126,tc,1,gain,40,0.24,10,0,0.5244219000451267,sure,0,target,dark,right
115,4,127,tc,1,loss,31,0.2,-25,0,0.7443913999013603,gamble,1,target,dark,right
115,4,128,tc,1,gain,52,0.54,8,1,0.5616951999254525,sure,0,catch_gamble,dark,left
115,4,129,tc,1,gain,84,0.38,32,0,0.49633560003712773,sure,0,target,dark,right
115,4,130,tc,1,gain,36,0.65,23,0,0.47424320015124977,sure,0,target,dark,left
115,4,131,tc,1,gain,71,0.54,38,0,0.5341880999039859,gamble,0,target,dark,right
115,4,132,tc,1,loss,78,0.51,-38,1,0.5494659999385476,sure,0,target,dark,left
115,4,133,tc,1,loss,50,0.18,-41,0,0.5467869001440704,sure,0,target,dark,left
115,4,134,tc,1,loss,78,0.52,-37,0,0.6447240998968482,sure,0,target,dark,right
115,4,135,tc,1,loss,72,0.29,-51,1,0.775971099967137,sure,0,target,dark,right
115,4,136,tc,1,gain,64,0.48,31,0,0.7032432998530567,gamble,1,target,dark,left
115,4,137,tc,1,gain,47,0.29,14,0,0.5291877998970449,sure,0,target,dark,right
115,4,138,tc,1,gain,80,0.4,53,1,0.738522500032559,sure,0,catch_sure,dark,left
115,4,139,tc,1,loss,45,0.46,-24,0,0.777753199916333,sure,1,target,dark,right
115,4,140,tc,1,loss,33,0.54,-15,0,0.6617306999396533,sure,0,target,dark,left
115,4,141,tc,1,loss,76,0.34,-50,1,0.8436660999432206,sure,0,target,dark,right
115,4,142,tc,1,gain,78,0.28,22,1,0.8242820000741631,sure,0,target,dark,right
115,4,143,tc,1,loss,40,0.24,-30,0,0.8322419999167323,sure,1,target,dark,right
115,4,144,tc,1,gain,78,0.1,8,1,0.7068605001550168,sure,1,target,dark,left
115,4,145,tc,1,loss,65,0.59,-27,1,0.8974776000250131,gamble,0,target,dark,left
115,4,146,tc,1,loss,83,0.51,-41,1,0.9313863001298159,sure,1,target,dark,left
115,4,147,tc,1,gain,30,0.41,12,1,0.7087135000620037,gamble,1,target,dark,right
115,4,148,tc,1,gain,70,0.39,27,NA,NA,NA,NA,target,dark,NA
115,4,149,tc,1,gain,71,0.78,55,0,0.7012271999847144,sure,0,target,dark,right
115,4,150,tc,1,loss,69,0.21,-55,1,0.9038646002300084,sure,1,target,dark,left
115,4,151,tc,1,loss,22,0.39,-13,1,0.9057810001540929,gamble,1,target,dark,right
115,4,152,tc,1,gain,88,0.29,26,0,0.5890615999232978,sure,0,target,dark,left
115,4,153,tc,1,gain,40,0.85,34,0,0.6197013999335468,sure,0,target,dark,left
115,4,154,tc,1,loss,32,0.58,-13,0,0.8016743001062423,sure,0,target,dark,right
115,4,155,tc,1,loss,71,0.54,-33,1,0.656241400167346,gamble,1,target,dark,right
115,4,156,tc,1,gain,44,0.2,9,0,0.8422182998619974,gamble,1,target,dark,right
115,4,157,tc,1,gain,47,0.51,24,0,0.5441474998369813,sure,0,target,dark,right
115,4,158,tc,1,gain,33,0.54,18,1,0.9035018999129534,sure,1,target,dark,right
115,4,159,tc,1,gain,43,0.35,15,0,0.48609360004775226,sure,0,target,dark,right
115,4,160,tc,1,loss,85,0.39,-52,1,0.8314034999348223,sure,1,target,dark,left
115,5,161,ntc,Inf,loss,84,0.38,-52,0,3.517548599978909,sure,1,target,dark,right
115,5,162,ntc,Inf,gain,86,0.5,43,0,1.6154849999584258,gamble,1,target,dark,right
115,5,163,ntc,Inf,gain,74,0.53,39,0,1.2994420998729765,gamble,1,target,dark,right
115,5,164,ntc,Inf,gain,88,0.25,22,0,3.5007033001165837,sure,1,target,dark,left
115,5,165,ntc,Inf,gain,26,0.3,8,1,0.9532981999218464,sure,1,target,dark,left
115,5,166,ntc,Inf,loss,85,0.39,-52,0,2.445205800002441,sure,1,target,dark,left
115,5,167,ntc,Inf,gain,35,0.26,9,1,1.7111440000589937,sure,1,target,dark,left
115,5,168,ntc,Inf,gain,30,0.41,12,1,1.145760100102052,sure,1,target,dark,left
115,5,169,ntc,Inf,gain,88,0.29,26,0,1.4770243000239134,sure,1,target,dark,left
115,5,170,ntc,Inf,gain,70,0.15,10,1,2.498371100053191,gamble,1,target,dark,right
115,5,171,ntc,Inf,loss,31,0.2,-25,1,4.0428534999955446,sure,1,target,dark,left
115,5,172,ntc,Inf,loss,22,0.34,-15,1,1.4561600000597537,sure,1,target,dark,left
115,5,173,ntc,Inf,loss,45,0.14,-39,0,1.6313784001395106,sure,1,target,dark,left
115,5,174,ntc,Inf,gain,69,0.34,23,0,1.2313053000252694,gamble,1,target,dark,right
115,5,175,ntc,Inf,loss,51,0.39,-8,1,1.8212471001315862,sure,1,catch_sure,dark,left
115,5,176,ntc,Inf,gain,45,0.14,6,0,1.9584889998659492,gamble,1,target,dark,right
115,5,177,ntc,Inf,loss,55,0.64,-20,1,1.6604282001499087,sure,1,target,dark,left
115,5,178,ntc,Inf,loss,66,0.4,-40,1,2.3476648000068963,gamble,1,target,dark,right
115,5,179,ntc,Inf,loss,64,0.67,-21,1,1.5202043000608683,gamble,1,target,dark,left
115,5,180,ntc,Inf,gain,86,0.39,34,0,1.5982558999676257,gamble,1,target,dark,right
115,5,181,ntc,Inf,gain,46,0.39,18,1,3.058151099830866,gamble,1,target,dark,right
115,5,182,ntc,Inf,loss,71,0.54,-33,0,2.055424600141123,gamble,1,target,dark,right
115,5,183,ntc,Inf,loss,85,0.12,-75,0,4.031516300048679,gamble,1,target,dark,right
115,5,184,ntc,Inf,loss,76,0.34,-50,0,1.8838883000425994,gamble,1,target,dark,right
115,5,185,ntc,Inf,gain,50,0.18,9,1,2.3577195999678224,gamble,1,target,dark,right
115,5,186,ntc,Inf,gain,71,0.76,54,0,3.203159299911931,sure,1,target,dark,right
115,5,187,ntc,Inf,loss,65,0.59,-27,1,1.7956317998468876,sure,1,target,dark,left
115,5,188,ntc,Inf,gain,52,0.54,8,1,1.4689370000269264,sure,1,catch_gamble,dark,left
115,5,189,ntc,Inf,loss,64,0.66,-22,0,1.9542223000898957,gamble,1,target,dark,right
115,5,190,ntc,Inf,gain,67,0.1,29,0,1.3613810001406819,gamble,1,catch_sure,dark,right
115,5,191,ntc,Inf,gain,55,0.64,35,0,2.0466919001191854,gamble,1,target,dark,right
115,5,192,ntc,Inf,gain,32,0.58,19,0,2.1912913999985904,sure,1,target,dark,left
115,5,193,ntc,Inf,loss,72,0.29,-51,0,1.9679328999482095,sure,1,target,dark,left
115,5,194,ntc,Inf,loss,40,0.85,-6,0,2.92583080008626,gamble,1,target,dark,right
115,5,195,ntc,Inf,gain,66,0.4,26,0,1.4337860001251101,sure,1,target,dark,left
115,5,196,ntc,Inf,gain,26,0.11,23,0,2.5323626999743283,sure,1,catch_sure,dark,left
115,5,197,ntc,Inf,loss,89,0.71,-26,0,1.6382548999972641,gamble,1,target,dark,right
115,5,198,ntc,Inf,loss,73,0.51,-61,1,2.858140900032595,gamble,1,catch_gamble,dark,right
115,5,199,ntc,Inf,loss,53,0.38,-33,0,1.8894670999143273,sure,1,target,dark,left
115,5,200,ntc,Inf,loss,36,0.65,-13,0,1.4120563000906259,gamble,1,target,dark,right
115,6,201,tc,1,loss,87,0.34,-78,1,0.5596520002000034,sure,0,catch_gamble,dark,right
115,6,202,tc,1,gain,71,0.76,54,NA,NA,NA,NA,target,dark,NA
115,6,203,tc,1,gain,83,0.51,42,0,0.49490940012037754,sure,0,target,dark,left
115,6,204,tc,1,loss,35,0.26,-26,1,0.6875094999559224,sure,0,target,dark,left
115,6,205,tc,1,gain,85,0.12,10,1,0.8068146998994052,sure,1,target,dark,left
115,6,206,tc,1,loss,26,0.11,-3,0,0.7000770999584347,sure,0,catch_sure,dark,right
115,6,207,tc,1,gain,66,0.4,26,0,0.538701199926436,sure,0,target,dark,left
115,6,208,tc,1,loss,50,0.2,-40,0,0.5866292999126017,sure,0,target,dark,left
115,6,209,tc,1,gain,53,0.38,20,0,0.46454599988646805,sure,0,target,dark,right
115,6,210,tc,1,gain,88,0.25,22,1,0.7298508000094444,sure,1,target,dark,left
115,6,211,tc,1,loss,55,0.64,-20,0,0.795201700180769,sure,1,target,dark,right
115,6,212,tc,1,gain,45,0.14,6,0,0.7344341999851167,sure,1,target,dark,left
115,6,213,tc,1,loss,83,0.52,-40,1,0.8224164999555796,sure,0,target,dark,left
115,6,214,tc,1,loss,38,0.43,-22,0,0.6876467000693083,sure,0,target,dark,left
115,6,215,tc,1,loss,32,0.36,-20,1,0.9043110001366585,sure,1,target,dark,left
115,6,216,tc,1,gain,86,0.39,34,0,0.6262082001194358,sure,0,target,dark,right
115,6,217,tc,1,gain,70,0.15,10,1,0.6775169000029564,sure,1,target,dark,left
115,6,218,tc,1,loss,89,0.48,-46,0,0.8934417997952551,gamble,0,target,dark,left
115,6,219,tc,1,gain,74,0.53,39,0,0.6980186000000685,sure,0,target,dark,left
115,6,220,tc,1,loss,51,0.39,-8,0,0.7713705999776721,sure,1,catch_sure,dark,left
115,6,221,tc,1,loss,51,0.35,-33,0,0.900007699849084,gamble,1,target,dark,right
115,6,222,tc,1,gain,69,0.1,7,0,0.5519226000178605,gamble,1,target,dark,left
115,6,223,tc,1,loss,47,0.29,-33,0,0.9084978001192212,sure,1,target,dark,left
115,6,224,tc,1,gain,55,0.64,35,0,0.6924417000263929,sure,1,target,dark,left
115,6,225,tc,1,gain,38,0.43,16,0,0.6184084999840707,sure,0,target,dark,right
115,6,226,tc,1,gain,78,0.51,40,1,0.9704134999774396,sure,1,target,dark,left
115,6,227,tc,1,gain,32,0.36,12,0,0.7502719999756664,gamble,1,target,dark,right
115,6,228,tc,1,loss,85,0.12,-75,1,0.9196144000161439,sure,1,target,dark,left
115,6,229,tc,1,gain,67,0.1,29,0,0.5268774998839945,sure,0,catch_sure,dark,right
115,6,230,tc,1,gain,81,0.46,37,0,0.6341303999070078,sure,0,target,dark,left
115,6,231,tc,1,loss,67,0.1,-38,0,0.8994264998473227,sure,1,catch_sure,dark,right
115,6,232,tc,1,gain,89,0.71,63,0,0.45137570006772876,sure,0,target,dark,left
115,6,233,tc,1,loss,86,0.5,-43,0,0.6593615999445319,gamble,1,target,dark,right
115,6,234,tc,1,gain,52,0.27,14,0,0.49590619979426265,sure,0,target,dark,right
115,6,235,tc,1,loss,21,0.2,-17,1,0.6625691000372171,sure,1,target,dark,right
115,6,236,tc,1,loss,56,0.1,-50,1,0.8525168998166919,sure,1,target,dark,left
115,6,237,tc,1,loss,64,0.66,-22,0,0.8431412999052554,gamble,1,target,dark,right
115,6,238,tc,1,loss,52,0.24,-40,0,0.4831014999654144,sure,0,target,dark,left
115,6,239,tc,1,loss,22,0.34,-15,1,0.8224132000468671,sure,1,target,dark,right
115,6,240,tc,1,gain,78,0.52,41,0,0.5003457998391241,sure,0,target,dark,left
115,7,241,ntc,Inf,gain,51,0.39,43,1,2.9905218000058085,sure,1,catch_sure,dark,right
115,7,242,ntc,Inf,loss,71,0.78,-16,0,1.5437901997938752,sure,1,target,dark,left
115,7,243,ntc,Inf,gain,69,0.1,7,1,3.367639600066468,sure,1,target,dark,left
115,7,244,ntc,Inf,loss,64,0.48,-33,0,1.232283900026232,gamble,1,target,dark,right
115,7,245,ntc,Inf,gain,70,0.39,27,0,2.1229244000278413,gamble,1,target,dark,right
115,7,246,ntc,Inf,gain,45,0.46,21,1,2.010164599865675,NA,NA,target,dark,NA
115,7,247,ntc,Inf,loss,26,0.11,-3,0,1.3754202998243272,sure,0,catch_sure,dark,left
115,7,248,ntc,Inf,gain,85,0.12,10,1,3.556065100012347,gamble,1,target,dark,right
115,7,249,ntc,Inf,loss,81,0.46,-44,1,1.690613399958238,sure,1,target,dark,left
115,7,250,ntc,Inf,gain,89,0.48,43,0,1.603178899968043,sure,1,target,dark,left
115,7,251,ntc,Inf,gain,78,0.51,40,0,1.5917837000451982,sure,1,target,dark,left
115,7,252,ntc,Inf,loss,78,0.52,-37,1,1.5210473998449743,sure,1,target,dark,left
115,7,253,ntc,Inf,loss,39,0.41,-23,1,3.0596445000264794,gamble,1,target,dark,right
115,7,254,ntc,Inf,gain,51,0.35,18,0,1.8982138000428677,sure,1,target,dark,left
115,7,255,ntc,Inf,loss,32,0.36,-20,1,2.2861520000733435,sure,1,target,dark,right
115,7,256,ntc,Inf,gain,50,0.2,10,0,2.683420700021088,gamble,1,target,dark,right
115,7,257,ntc,Inf,loss,79,0.25,-59,0,2.0399700000416487,gamble,1,target,dark,right
115,7,258,ntc,Inf,loss,26,0.3,-18,0,2.1653567000757903,sure,1,target,dark,left
115,7,259,ntc,Inf,loss,32,0.58,-13,1,0.7552475000265986,gamble,0,target,dark,left
115,7,260,ntc,Inf,loss,51,0.35,-33,0,1.1744601000100374,gamble,1,target,dark,right
115,7,261,ntc,Inf,loss,52,0.54,-44,1,1.2077409999910742,sure,1,catch_gamble,dark,left
115,7,262,ntc,Inf,gain,78,0.28,22,0,1.6356989000923932,sure,1,target,dark,left
115,7,263,ntc,Inf,loss,50,0.18,-41,0,1.6349494999740273,gamble,1,target,dark,right
115,7,264,ntc,Inf,gain,32,0.36,12,1,1.5568738000001758,sure,1,target,dark,left
115,7,265,ntc,Inf,gain,53,0.38,20,0,1.3347671998199075,sure,1,target,dark,left
115,7,266,ntc,Inf,gain,22,0.34,7,1,2.004759200150147,gamble,1,target,dark,right
115,7,267,ntc,Inf,gain,81,0.46,37,0,1.8446559000294656,sure,1,target,dark,left
115,7,268,ntc,Inf,gain,82,0.35,29,0,1.2559646998997778,sure,1,target,dark,left
115,7,269,ntc,Inf,gain,89,0.71,63,0,1.4451456000097096,sure,1,target,dark,left
115,7,270,ntc,Inf,gain,84,0.38,32,0,1.833836000179872,gamble,1,target,dark,right
115,7,271,ntc,Inf,gain,73,0.51,12,1,1.1730347000993788,NA,NA,catch_gamble,dark,NA
115,7,272,ntc,Inf,loss,87,0.34,-78,1,2.792309100041166,sure,1,catch_gamble,dark,right
115,7,273,ntc,Inf,gain,38,0.43,16,1,1.2862530001439154,sure,1,target,dark,left
115,7,274,ntc,Inf,loss,44,0.2,-35,0,1.827528900001198,sure,1,target,dark,left
115,7,275,ntc,Inf,loss,21,0.2,-17,0,1.6787453999277204,sure,1,target,dark,left
115,7,276,ntc,Inf,loss,78,0.51,-38,1,1.9680122998543084,NA,NA,target,dark,NA
115,7,277,ntc,Inf,gain,69,0.21,14,1,2.945322000188753,sure,1,target,dark,left
115,7,278,ntc,Inf,loss,50,0.2,-40,1,1.769204800017178,sure,1,target,dark,left
115,7,279,ntc,Inf,loss,33,0.65,-12,1,1.2731176000088453,sure,1,target,dark,left
115,7,280,ntc,Inf,loss,56,0.1,-50,1,3.002417500130832,gamble,1,target,dark,right
115,8,281,tc,1,loss,39,0.41,-23,NA,NA,NA,NA,target,dark,NA
115,8,282,tc,1,loss,70,0.39,-43,0,0.571913099847734,sure,0,target,dark,right
115,8,283,tc,1,gain,33,0.69,3,1,0.8358624998945743,sure,1,catch_gamble,dark,right
115,8,284,tc,1,loss,57,0.45,-31,0,0.5337920999154449,sure,0,target,dark,right
115,8,285,tc,1,loss,35,0.45,-19,0,0.5437524998560548,sure,0,target,dark,left
115,8,286,tc,1,gain,22,0.17,4,0,0.46165110007859766,sure,0,target,dark,right
115,8,287,tc,1,gain,85,0.39,33,0,0.5270044999197125,sure,0,target,dark,right
115,8,288,tc,1,gain,42,0.57,24,1,0.845633499789983,sure,1,target,dark,right
115,8,289,tc,1,gain,83,0.52,43,1,0.6521260000299662,gamble,0,target,dark,left
115,8,290,tc,1,gain,46,0.39,18,1,0.8655009001959115,sure,1,target,dark,right
115,8,291,tc,1,gain,45,0.46,21,0,0.492131499806419,sure,0,target,dark,left
115,8,292,tc,1,loss,36,0.65,-13,1,0.4368864002171904,NA,NA,target,dark,NA
115,8,293,tc,1,loss,80,0.4,-27,1,0.654649400152266,sure,1,catch_sure,dark,right
115,8,294,tc,1,gain,26,0.11,23,0,0.5859916999470443,sure,0,catch_sure,dark,left
115,8,295,tc,1,gain,69,0.21,14,0,0.8479174999520183,sure,0,target,dark,right
115,8,296,tc,1,gain,78,0.28,22,1,0.9765377999283373,sure,1,target,dark,right
115,8,297,tc,1,gain,52,0.24,12,NA,NA,NA,NA,target,dark,NA
115,8,298,tc,1,gain,76,0.34,26,0,0.42375519988127053,sure,0,target,dark,right
115,8,299,tc,1,gain,54,0.63,34,0,0.5097141000442207,sure,0,target,dark,left
115,8,300,tc,1,gain,73,0.51,12,1,0.6076674000360072,sure,1,catch_gamble,dark,left
115,8,301,tc,1,loss,33,0.69,-30,1,0.5015895999968052,sure,0,catch_gamble,dark,left
115,8,302,tc,1,gain,64,0.67,43,0,0.4981938998680562,sure,0,target,dark,left
115,8,303,tc,1,loss,44,0.2,-35,1,0.7001550998538733,sure,1,target,dark,right
115,8,304,tc,1,loss,52,0.54,-44,1,0.6094690999016166,sure,1,catch_gamble,dark,left
115,8,305,tc,1,loss,43,0.35,-28,0,0.5360186998732388,sure,0,target,dark,left
115,8,306,tc,1,loss,71,0.78,-16,1,0.5760210999287665,gamble,0,target,dark,left
115,8,307,tc,1,loss,64,0.48,-33,0,0.7152789998799562,gamble,1,target,dark,left
115,8,308,tc,1,loss,81,0.46,-44,1,0.6934875999577343,sure,1,target,dark,left
115,8,309,tc,1,gain,35,0.45,16,0,0.4812024999409914,sure,0,target,dark,left
115,8,310,tc,1,loss,70,0.15,-60,1,0.8078532998915762,sure,0,target,dark,left
115,8,311,tc,1,gain,50,0.2,10,0,0.45975539996288717,sure,0,target,dark,right
115,8,312,tc,1,loss,26,0.3,-18,1,0.5837361998856068,sure,0,target,dark,right
115,8,313,tc,1,loss,46,0.39,-28,1,0.697664299979806,sure,0,target,dark,right
115,8,314,tc,1,loss,73,0.51,-61,1,0.6636230000294745,sure,1,catch_gamble,dark,left
115,8,315,tc,1,loss,74,0.53,-35,1,0.7216238998807967,sure,1,target,dark,right
115,8,316,tc,1,gain,86,0.5,43,0,0.6869309998583049,gamble,1,target,dark,right
115,8,317,tc,1,loss,78,0.28,-56,0,0.6281781999859959,gamble,1,target,dark,right
115,8,318,tc,1,gain,64,0.66,42,0,0.6233904999680817,sure,0,target,dark,left
115,8,319,tc,1,loss,71,0.76,-17,0,0.7133615999482572,sure,1,target,dark,right
115,8,320,tc,1,gain,35,0.26,9,0,0.6833391999825835,gamble,1,target,dark,right
116,1,1,ntc,Inf,gain,78,0.28,22,1,3.711799400160089,gamble,1,target,light,right
116,1,2,ntc,Inf,loss,51,0.39,-8,1,2.2137475998606533,gamble,1,catch_sure,light,left
116,1,3,ntc,Inf,gain,78,0.1,8,0,1.740958800073713,gamble,1,target,light,left
116,1,4,ntc,Inf,gain,45,0.46,21,0,3.410920799942687,sure,1,target,light,right
116,1,5,ntc,Inf,gain,26,0.3,8,0,2.304831099929288,gamble,1,target,light,left
116,1,6,ntc,Inf,gain,32,0.58,19,1,1.6367445001378655,gamble,0,target,light,left
116,1,7,ntc,Inf,loss,57,0.45,-31,1,4.640677300048992,sure,1,target,light,left
116,1,8,ntc,Inf,gain,44,0.2,9,0,2.8239404000341892,gamble,1,target,light,right
116,1,9,ntc,Inf,loss,46,0.39,-28,1,2.263855899916962,gamble,1,target,light,right
116,1,10,ntc,Inf,loss,35,0.26,-26,1,4.386467600008473,sure,1,target,light,left
116,1,11,ntc,Inf,loss,55,0.64,-20,1,2.2277474999427795,gamble,1,target,light,right
116,1,12,ntc,Inf,gain,82,0.35,29,0,2.260362699860707,sure,1,target,light,right
116,1,13,ntc,Inf,gain,74,0.53,39,1,3.8862437999341637,sure,1,target,light,left
116,1,14,ntc,Inf,loss,30,0.41,-18,0,1.584812199929729,gamble,1,target,light,right
116,1,15,ntc,Inf,loss,86,0.5,-43,0,3.6461396000813693,sure,1,target,light,left
116,1,16,ntc,Inf,gain,78,0.51,40,1,1.3586812999565154,sure,1,target,light,right
116,1,17,ntc,Inf,loss,51,0.35,-33,1,6.586626600008458,gamble,1,target,light,left
116,1,18,ntc,Inf,loss,89,0.71,-26,1,2.355893600033596,gamble,1,target,light,right
116,1,19,ntc,Inf,gain,66,0.4,26,0,2.379085300024599,sure,1,target,light,left
116,1,20,ntc,Inf,gain,89,0.48,43,0,5.161765600088984,gamble,1,target,light,right
116,1,21,ntc,Inf,loss,45,0.14,-39,0,1.8243208001367748,gamble,1,target,light,right
116,1,22,ntc,Inf,gain,64,0.48,31,1,2.661593599943444,gamble,1,target,light,right
116,1,23,ntc,Inf,loss,21,0.2,-17,1,5.2335035998839885,gamble,1,target,light,right
116,1,24,ntc,Inf,loss,26,0.3,-18,0,1.8027937000151724,gamble,1,target,light,left
116,1,25,ntc,Inf,gain,42,0.57,24,1,2.2573204000946134,sure,1,target,light,left
116,1,26,ntc,Inf,gain,86,0.39,34,0,2.7812310999725014,gamble,1,target,light,left
116,1,27,ntc,Inf,loss,22,0.17,-18,1,4.07120420015417,gamble,1,target,light,right
116,1,28,ntc,Inf,gain,73,0.51,12,1,1.3864645999856293,sure,1,catch_gamble,light,left
116,1,29,ntc,Inf,loss,36,0.65,-13,1,1.2810265000443906,gamble,0,target,light,right
116,1,30,ntc,Inf,gain,88,0.25,22,0,1.9276562000159174,sure,1,target,light,right
116,1,31,ntc,Inf,loss,22,0.34,-15,0,2.5889461000915617,sure,1,target,light,right
116,1,32,ntc,Inf,loss,42,0.57,-18,1,1.3468959999736398,sure,1,target,light,left
116,1,33,ntc,Inf,gain,33,0.54,18,1,2.58277179999277,sure,1,target,light,left
116,1,34,ntc,Inf,gain,64,0.67,43,1,1.6514109000563622,gamble,1,target,light,right
116,1,35,ntc,Inf,loss,39,0.41,-23,0,2.077381200157106,gamble,1,target,light,left
116,1,36,ntc,Inf,loss,31,0.2,-25,0,1.3492687998805195,gamble,1,target,light,right
116,1,37,ntc,Inf,loss,86,0.39,-52,1,2.3825127000454813,sure,1,target,light,left
116,1,38,ntc,Inf,loss,71,0.76,-17,1,1.2871541997883469,sure,1,target,light,left
116,1,39,ntc,Inf,gain,83,0.51,42,0,1.7910234997980297,sure,1,target,light,left
116,1,40,ntc,Inf,gain,53,0.38,20,1,1.498992099892348,gamble,1,target,light,right
116,2,41,tc,1,loss,30,0.41,-18,0,0.6823570001870394,sure,0,target,light,left
116,2,42,tc,1,gain,79,0.25,20,0,0.8429485999513417,sure,0,target,light,right
116,2,43,tc,1,loss,33,0.65,-12,1,0.7449097000062466,sure,1,target,light,left
116,2,44,tc,1,loss,22,0.17,-18,1,0.7361824000254273,sure,1,target,light,left
116,2,45,tc,1,loss,85,0.39,-52,1,0.8381661998573691,sure,0,target,light,right
116,2,46,tc,1,gain,89,0.48,43,0,0.5907922999467701,sure,0,target,light,right
116,2,47,tc,1,gain,22,0.39,9,1,0.6647795999888331,gamble,0,target,light,left
116,2,48,tc,1,gain,71,0.54,38,0,0.7006548000499606,gamble,0,target,light,right
116,2,49,tc,1,loss,26,0.11,-3,1,0.8939920000266284,gamble,0,catch_sure,light,left
116,2,50,tc,1,loss,78,0.52,-37,NA,NA,NA,NA,target,light,NA
116,2,51,tc,1,loss,71,0.78,-16,0,0.5551501999143511,sure,0,target,light,left
116,2,52,tc,1,gain,64,0.67,43,0,0.7998198999557644,sure,0,target,light,right
116,2,53,tc,1,loss,86,0.5,-43,NA,NA,NA,NA,target,light,NA
116,2,54,tc,1,loss,73,0.51,-61,0,0.6596707999706268,sure,0,catch_gamble,light,right
116,2,55,tc,1,gain,33,0.69,3,1,0.4789054000284523,gamble,0,catch_gamble,light,right
116,2,56,tc,1,gain,69,0.1,7,0,0.6655769001226872,sure,0,target,light,right
116,2,57,tc,1,gain,88,0.25,22,0,0.6861767000518739,gamble,1,target,light,right
116,2,58,tc,1,loss,46,0.39,-28,1,0.533438399899751,gamble,0,target,light,right
116,2,59,tc,1,loss,67,0.1,-38,0,0.7814042998943478,gamble,1,catch_sure,light,left
116,2,60,tc,1,loss,45,0.46,-24,0,0.6567172999493778,sure,0,target,light,right
116,2,61,tc,1,loss,71,0.54,-33,1,0.6613721998874098,sure,1,target,light,left
116,2,62,tc,1,gain,73,0.51,12,1,0.71462460001930594,gamble,1,catch_gamble,light,right
116,2,63,tc,1,gain,30,0.41,12,0,0.49786509992554784,sure,0,target,light,left
116,2,64,tc,1,gain,72,0.29,21,0,0.5584525999147445,sure,0,target,light,right
116,2,65,tc,1,gain,69,0.21,14,1,0.6777436998672783,gamble,0,target,light,right
116,2,66,tc,1,gain,22,0.17,4,1,0.668426999822259,sure,1,target,light,left
116,2,67,tc,1,loss,57,0.45,-31,1,0.7437130000907928,gamble,1,target,light,right
116,2,68,tc,1,gain,39,0.41,16,0,0.5603573000989854,sure,0,target,light,right
116,2,69,tc,1,loss,81,0.46,-44,0,0.7889321001712233,sure,1,target,light,left
116,2,70,tc,1,loss,36,0.65,-13,1,0.4688740000128746,gamble,0,target,light,left
116,2,71,tc,1,gain,22,0.34,7,1,0.5928884998429567,gamble,0,target,light,left
116,2,72,tc,1,loss,84,0.38,-52,0,0.6361097001936287,sure,0,target,light,left
116,2,73,tc,1,gain,46,0.39,18,0,0.6554429000243545,sure,0,target,light,right
116,2,74,tc,1,gain,21,0.28,6,1,0.7107233998831362,gamble,0,target,light,right
116,2,75,tc,1,gain,78,0.28,22,0,0.7940054000355303,sure,1,target,light,left
116,2,76,tc,1,gain,78,0.51,40,0,0.6713040999602526,sure,0,target,light,left
116,2,77,tc,1,loss,89,0.48,-46,0,0.8772779998835176,gamble,1,target,light,left
116,2,78,tc,1,loss,50,0.2,-40,0,0.8451972999610007,gamble,1,target,light,right
116,2,79,tc,1,gain,78,0.52,41,1,0.6104494000319391,gamble,0,target,light,right
116,2,80,tc,1,loss,69,0.1,-62,1,0.8144492001738399,sure,1,target,light,left
116,3,81,ntc,Inf,loss,32,0.58,-13,1,5.649836099939421,sure,1,target,light,left
116,3,82,ntc,Inf,gain,50,0.2,10,1,3.610421200050041,gamble,1,target,light,right
116,3,83,ntc,Inf,loss,81,0.46,-44,0,2.9569750998634845,sure,1,target,light,right
116,3,84,ntc,Inf,gain,33,0.65,21,1,1.6989322998560965,sure,1,target,light,left
116,3,85,ntc,Inf,loss,69,0.21,-55,0,1.4568409000057727,gamble,1,target,light,right
116,3,86,ntc,Inf,loss,89,0.48,-46,1,0.9774843999184668,sure,1,target,light,left
116,3,87,ntc,Inf,gain,54,0.63,34,0,1.1887574999127537,sure,1,target,light,left
116,3,88,ntc,Inf,gain,39,0.41,16,1,1.5045769000425935,sure,1,target,light,left
116,3,89,ntc,Inf,loss,70,0.39,-43,1,4.197318800026551,gamble,1,target,light,right
116,3,90,ntc,Inf,loss,47,0.51,-23,0,2.7478557000868022,sure,1,target,light,right
116,3,91,ntc,Inf,loss,78,0.28,-56,0,3.2084594999905676,sure,1,target,light,left
116,3,92,ntc,Inf,loss,40,0.24,-30,1,1.4270787998102605,sure,1,target,light,left
116,3,93,ntc,Inf,loss,45,0.46,-24,1,2.6742696999572217,sure,1,target,light,left
116,3,94,ntc,Inf,gain,40,0.24,10,1,1.2155732999090105,sure,1,target,light,left
116,3,95,ntc,Inf,gain,78,0.52,41,0,1.298810200067237,sure,1,target,light,left
116,3,96,ntc,Inf,loss,83,0.52,-40,1,4.717428399948403,gamble,1,target,light,right
116,3,97,ntc,Inf,gain,78,0.28,22,1,3.6753674999345094,gamble,1,target,light,right
116,3,98,ntc,Inf,loss,78,0.28,-56,1,2.0539712999016047,gamble,1,target,light,right
116,3,99,ntc,Inf,loss,78,0.51,-38,0,2.8324457998387516,gamble,1,target,light,left
116,3,100,ntc,Inf,loss,32,0.36,-20,1,1.6404603999108076,gamble,1,target,light,right
116,3,101,ntc,Inf,gain,85,0.12,10,1,2.207765799947083,sure,1,target,light,left
116,3,102,ntc,Inf,gain,21,0.28,6,0,0.7303549000062048,sure,0,target,light,left
116,3,103,ntc,Inf,gain,22,0.39,9,1,1.5635935999453068,sure,1,target,light,left
116,3,104,ntc,Inf,gain,87,0.34,9,0,2.9301107001956552,gamble,1,catch_gamble,light,right
116,3,105,ntc,Inf,gain,43,0.35,15,1,1.7580979000777006,sure,1,target,light,left
116,3,106,ntc,Inf,loss,47,0.29,-33,0,1.4520975998602808,gamble,1,target,light,right
116,3,107,ntc,Inf,loss,79,0.25,-59,0,2.133964999811724,sure,1,target,light,left
116,3,108,ntc,Inf,gain,81,0.46,37,0,1.651249600108713,gamble,1,target,light,right
116,3,109,ntc,Inf,loss,82,0.35,-53,1,1.7318611999507993,gamble,1,target,light,right
116,3,110,ntc,Inf,loss,26,0.11,-3,0,1.6318397000432014,gamble,1,catch_sure,light,right
116,3,111,ntc,Inf,loss,76,0.34,-50,1,1.8223123999778181,sure,1,target,light,left
116,3,112,ntc,Inf,gain,33,0.69,3,1,1.0149609001819044,gamble,0,catch_gamble,light,left
116,3,113,ntc,Inf,gain,36,0.65,23,0,1.0395663999952376,sure,0,target,light,left
116,3,114,ntc,Inf,gain,72,0.29,21,1,3.756882300134748,sure,1,target,light,right
116,3,115,ntc,Inf,loss,40,0.85,-6,0,1.172711200080812,sure,0,target,light,right
116,3,116,ntc,Inf,gain,80,0.4,53,0,1.067421699874103,sure,0,catch_sure,light,right
116,3,117,ntc,Inf,gain,57,0.45,26,1,1.6999307998921722,sure,1,target,light,right
116,3,118,ntc,Inf,loss,33,0.54,-15,1,1.666575999930501,sure,1,target,light,left
116,3,119,ntc,Inf,gain,45,0.14,6,0,2.6498346000444144,gamble,1,target,light,right
116,3,120,ntc,Inf,gain,52,0.54,8,1,1.6303846999071538,gamble,1,catch_gamble,light,right
116,4,121,tc,1,gain,51,0.39,43,0,0.6011120998300612,sure,0,catch_sure,light,right
116,4,122,tc,1,loss,83,0.51,-41,NA,NA,NA,NA,target,light,NA
116,4,123,tc,1,gain,64,0.66,42,0,0.4810548999812454,sure,0,target,light,left
116,4,124,tc,1,loss,70,0.39,-43,0,0.5829165000468493,sure,0,target,light,right
116,4,125,tc,1,loss,86,0.39,-52,0,0.7309003002010286,sure,1,target,light,left
116,4,126,tc,1,gain,89,0.71,63,1,0.698161399923265,sure,1,target,light,right
116,4,127,tc,1,gain,83,0.51,42,0,0.7475002999417484,gamble,1,target,light,right
116,4,128,tc,1,loss,71,0.76,-17,1,0.6187403001822531,gamble,0,target,light,right
116,4,129,tc,1,loss,64,0.48,-33,NA,NA,NA,NA,target,light,NA
116,4,130,tc,1,gain,78,0.28,22,0,0.5159429002087563,sure,0,target,light,right
116,4,131,tc,1,loss,88,0.29,-62,0,0.6419804999604821,sure,1,target,light,left
116,4,132,tc,1,loss,21,0.28,-15,1,0.5184810999780893,gamble,0,target,light,right
116,4,133,tc,1,loss,55,0.64,-20,1,0.5924819000065327,NA,NA,target,light,NA
116,4,134,tc,1,loss,31,0.2,-25,0,0.6524902998935431,gamble,1,target,light,right
116,4,135,tc,1,loss,76,0.34,-50,0,0.8364085000939667,gamble,1,target,light,right
116,4,136,tc,1,gain,67,0.1,29,0,0.6023426000028849,sure,0,catch_sure,light,left
116,4,137,tc,1,loss,45,0.14,-39,0,0.8376656000036746,gamble,1,target,light,right
116,4,138,tc,1,gain,82,0.35,29,1,0.9122917000204325,sure,1,target,light,left
116,4,139,tc,1,loss,69,0.34,-46,NA,NA,NA,NA,target,light,NA
116,4,140,tc,1,loss,52,0.54,-44,1,0.480865600053221,gamble,0,catch_gamble,light,right
116,4,141,tc,1,gain,32,0.36,12,1,0.5460632999893278,gamble,0,target,light,right
116,4,142,tc,1,gain,33,0.65,21,0,0.4814546999987215,sure,0,target,light,left
116,4,143,tc,1,gain,78,0.1,8,0,0.5633834998589009,sure,0,target,light,right
116,4,144,tc,1,gain,45,0.46,21,1,0.7359499000012875,sure,1,target,light,left
116,4,145,tc,1,loss,47,0.51,-23,1,0.7053032000549138,sure,1,target,light,left
116,4,146,tc,1,gain,81,0.46,37,0,0.6292566999327391,sure,0,target,light,right
116,4,147,tc,1,gain,65,0.59,38,0,0.6391550998669118,sure,0,target,light,right
116,4,148,tc,1,loss,70,0.15,-60,NA,NA,NA,NA,target,light,NA
116,4,149,tc,1,gain,71,0.76,54,0,0.6423350998666137,sure,0,target,light,left
116,4,150,tc,1,gain,56,0.1,6,1,0.7683174000121653,sure,1,target,light,right
116,4,151,tc,1,loss,22,0.39,-13,1,0.6322861998341978,sure,1,target,light,left
116,4,152,tc,1,loss,79,0.25,-59,1,0.7709006001241505,gamble,1,target,light,right
116,4,153,tc,1,gain,35,0.45,16,0,0.5215186001732945,sure,0,target,light,left
116,4,154,tc,1,loss,66,0.4,-40,0,0.8648943000007421,gamble,1,target,light,right
116,4,155,tc,1,gain,88,0.29,26,0,0.7193938998971134,gamble,1,target,light,right
116,4,156,tc,1,gain,51,0.35,18,0,0.7820427000988275,gamble,1,target,light,right
116,4,157,tc,1,gain,57,0.45,26,1,0.8839678999502212,sure,1,target,light,left
116,4,158,tc,1,gain,47,0.29,14,1,0.9892255999147892,gamble,1,target,light,right
116,4,159,tc,1,loss,52,0.24,-40,1,0.73453289992176,sure,1,target,light,left
116,4,160,tc,1,loss,85,0.12,-75,0,0.6444500999059528,gamble,1,target,light,right
116,5,161,ntc,Inf,loss,35,0.45,-19,0,4.257641000207514,gamble,1,target,light,right
116,5,162,ntc,Inf,gain,26,0.11,23,0,1.6348484000191092,sure,1,catch_sure,light,left
116,5,163,ntc,Inf,gain,22,0.17,4,1,1.5389040000736713,sure,1,target,light,left
116,5,164,ntc,Inf,loss,83,0.51,-41,1,3.22149520018138,gamble,1,target,light,right
116,5,165,ntc,Inf,loss,69,0.34,-46,0,1.5847589999902993,gamble,1,target,light,right
116,5,166,ntc,Inf,gain,84,0.38,32,1,2.618698799982667,sure,1,target,light,left
116,5,167,ntc,Inf,gain,70,0.39,27,1,3.033920699963346,gamble,1,target,light,right
116,5,168,ntc,Inf,loss,85,0.39,-52,0,1.3644922999665141,sure,1,target,light,left
116,5,169,ntc,Inf,gain,31,0.2,6,1,1.8877294999547303,sure,1,target,light,left
116,5,170,ntc,Inf,loss,52,0.54,-44,1,1.8923629999626428,sure,1,catch_gamble,light,left
116,5,171,ntc,Inf,loss,38,0.43,-22,0,1.3082608000840992,gamble,1,target,light,right
116,5,172,ntc,Inf,loss,72,0.29,-51,1,1.5448966999538243,sure,1,target,light,left
116,5,173,ntc,Inf,loss,71,0.54,-33,0,4.089427199913189,sure,1,target,light,left
116,5,174,ntc,Inf,loss,21,0.28,-15,1,1.5686999999452382,gamble,1,target,light,right
116,5,175,ntc,Inf,gain,51,0.35,18,0,2.761299500009045,sure,1,target,light,left
116,5,176,ntc,Inf,gain,50,0.18,9,1,1.1559225001838058,sure,1,target,light,left
116,5,177,ntc,Inf,loss,50,0.18,-41,1,2.7185471998527646,sure,1,target,light,left
116,5,178,ntc,Inf,gain,79,0.25,20,0,6.437074800021946,gamble,1,target,light,right
116,5,179,ntc,Inf,gain,67,0.1,29,0,1.3983710000757128,gamble,1,catch_sure,light,right
116,5,180,ntc,Inf,gain,47,0.51,24,1,2.311570900026709,gamble,1,target,light,right
116,5,181,ntc,Inf,gain,55,0.64,35,0,2.784240399952978,gamble,1,target,light,right
116,5,182,ntc,Inf,loss,65,0.59,-27,1,1.7034765998832881,sure,1,target,light,left
116,5,183,ntc,Inf,gain,21,0.2,4,1,1.3661295999772847,gamble,1,target,light,right
116,5,184,ntc,Inf,loss,67,0.1,-38,0,2.06206399993971,sure,1,catch_sure,light,left
116,5,185,ntc,Inf,loss,43,0.35,-28,1,3.160580199910328,sure,1,target,light,left
116,5,186,ntc,Inf,loss,74,0.53,-35,0,0.841125100152567,sure,0,target,light,left
116,5,187,ntc,Inf,loss,87,0.34,-78,1,4.158486400032416,sure,1,catch_gamble,light,left
116,5,188,ntc,Inf,loss,44,0.2,-35,1,4.404339500004426,gamble,1,target,light,right
116,5,189,ntc,Inf,loss,53,0.38,-33,0,1.4470047000795603,gamble,1,target,light,right
116,5,190,ntc,Inf,gain,40,0.85,34,1,1.5762354999314994,gamble,1,target,light,right
116,5,191,ntc,Inf,gain,71,0.54,38,0,1.1101432000286877,gamble,1,target,light,right
116,5,192,ntc,Inf,gain,83,0.52,43,1,3.8580785000231117,sure,1,target,light,left
116,5,193,ntc,Inf,gain,51,0.39,43,0,1.5180277000181377,sure,1,catch_sure,light,left
116,5,194,ntc,Inf,gain,76,0.34,26,1,4.753971900092438,gamble,1,target,light,right
116,5,195,ntc,Inf,gain,65,0.59,38,0,2.942536599934101,sure,1,target,light,left
116,5,196,ntc,Inf,loss,88,0.25,-66,1,1.5410837000235915,sure,1,target,light,left
116,5,197,ntc,Inf,gain,69,0.34,23,1,1.8457575000356883,sure,1,target,light,left
116,5,198,ntc,Inf,gain,88,0.29,26,0,0.9009700000751764,gamble,1,target,light,right
116,5,199,ntc,Inf,loss,33,0.69,-30,1,2.1329063999000937,gamble,1,catch_gamble,light,right
116,5,200,ntc,Inf,loss,22,0.39,-13,1,1.805557700106874,sure,1,target,light,left
116,6,201,tc,1,gain,80,0.4,53,0,0.5675087000709027,sure,0,catch_sure,light,left
116,6,202,tc,1,gain,71,0.78,55,0,0.7055108000058681,sure,1,target,light,left
116,6,203,tc,1,gain,31,0.2,6,1,0.8794456999748945,sure,1,target,light,left
116,6,204,tc,1,gain,52,0.24,12,1,0.762075699865818,sure,1,target,light,left
116,6,205,tc,1,loss,43,0.35,-28,0,0.8055930000264198,sure,0,target,light,right
116,6,206,tc,1,gain,70,0.15,10,NA,NA,NA,NA,target,light,NA
116,6,207,tc,1,loss,72,0.29,-51,1,0.7032417000737041,sure,1,target,light,left
116,6,208,tc,1,gain,50,0.18,9,1,0.7332215998321772,sure,1,target,light,right
116,6,209,tc,1,loss,74,0.53,-35,0,0.6478027000557631,gamble,0,target,light,left
116,6,210,tc,1,loss,35,0.26,-26,0,0.6857791999354959,sure,1,target,light,left
116,6,211,tc,1,gain,45,0.14,6,1,0.7430489999242127,sure,1,target,light,left
116,6,212,tc,1,gain,47,0.51,24,0,0.7957089999690652,sure,1,target,light,left
116,6,213,tc,1,gain,84,0.38,32,0,0.8976396999787539,sure,1,target,light,left
116,6,214,tc,1,gain,70,0.39,27,1,0.9369073000270873,sure,1,target,light,left
116,6,215,tc,1,gain,86,0.5,43,0,0.6868833999615163,gamble,1,target,light,right
116,6,216,tc,1,loss,38,0.43,-22,0,0.8701080998871475,gamble,1,target,light,right
116,6,217,tc,1,gain,69,0.34,23,1,0.8087088000029325,sure,1,target,light,right
116,6,218,tc,1,gain,74,0.53,39,0,0.9993673998396844,sure,1,target,light,left
116,6,219,tc,1,loss,39,0.41,-23,0,0.9613281001802534,sure,1,target,light,left
116,6,220,tc,1,loss,50,0.18,-41,NA,NA,NA,NA,target,light,NA
116,6,221,tc,1,gain,21,0.2,4,1,0.647205000044778,sure,1,target,light,left
116,6,222,tc,1,loss,64,0.67,-21,1,0.6999290999956429,gamble,1,target,light,right
116,6,223,tc,1,loss,26,0.3,-18,1,0.741771699860692,sure,1,target,light,left
116,6,224,tc,1,loss,33,0.69,-30,1,0.6257187000010163,gamble,0,catch_gamble,light,right
116,6,225,tc,1,loss,22,0.34,-15,0,0.9036306999623775,sure,1,target,light,left
116,6,226,tc,1,loss,56,0.1,-50,0,0.766948000062257,gamble,1,target,light,right
116,6,227,tc,1,loss,51,0.35,-33,1,0.8721962999552488,gamble,1,target,light,right
116,6,228,tc,1,gain,83,0.52,43,0,0.5968722000252455,sure,0,target,light,left
116,6,229,tc,1,loss,44,0.2,-35,0,0.9321030999999493,gamble,1,target,light,right
116,6,230,tc,1,loss,65,0.59,-27,NA,NA,NA,NA,target,light,NA
116,6,231,tc,1,gain,35,0.26,9,1,0.7333788999821991,sure,1,target,light,left
116,6,232,tc,1,gain,54,0.63,34,0,0.6253174000885338,sure,0,target,light,right
116,6,233,tc,1,loss,33,0.54,-15,1,0.8352943998761475,sure,1,target,light,left
116,6,234,tc,1,gain,42,0.57,24,1,0.9591901998501271,sure,1,target,light,left
116,6,235,tc,1,loss,52,0.27,-38,1,0.7151591000147164,sure,1,target,light,left
116,6,236,tc,1,loss,47,0.29,-33,NA,NA,NA,NA,target,light,NA
116,6,237,tc,1,gain,55,0.64,35,0,0.6157527999021113,sure,0,target,light,left
116,6,238,tc,1,loss,40,0.85,-6,1,0.5890118000097573,gamble,0,target,light,right
116,6,239,tc,1,loss,82,0.35,-53,0,0.8789513001684099,gamble,1,target,light,right
116,6,240,tc,1,gain,40,0.85,34,1,0.7288994998671114,sure,1,target,light,left
116,7,241,ntc,Inf,gain,56,0.1,6,1,4.295416499953717,gamble,1,target,light,right
116,7,242,ntc,Inf,gain,52,0.24,12,0,4.016714199911803,sure,1,target,light,left
116,7,243,ntc,Inf,gain,35,0.26,9,1,2.982641999842599,gamble,1,target,light,right
116,7,244,ntc,Inf,loss,85,0.12,-75,0,1.6365230998490006,sure,1,target,light,left
116,7,245,ntc,Inf,loss,52,0.24,-40,1,2.978504400001839,gamble,1,target,light,right
116,7,246,ntc,Inf,loss,71,0.78,-16,0,2.827022299868986,sure,1,target,light,left
116,7,247,ntc,Inf,loss,33,0.65,-12,1,2.0416434998624027,sure,1,target,light,left
116,7,248,ntc,Inf,loss,84,0.38,-52,0,6.221597900148481,sure,1,target,light,left
116,7,249,ntc,Inf,loss,70,0.15,-60,1,1.9848533000331372,gamble,1,target,light,right
116,7,250,ntc,Inf,gain,32,0.36,12,1,1.633379900129512,gamble,1,target,light,right
116,7,251,ntc,Inf,loss,54,0.63,-20,1,2.6187163998838514,sure,1,target,light,left
116,7,252,ntc,Inf,loss,50,0.2,-40,0,2.1079196000937372,sure,1,target,light,left
116,7,253,ntc,Inf,loss,78,0.52,-37,0,3.3805209998972714,sure,1,target,light,left
116,7,254,ntc,Inf,loss,80,0.4,-27,0,1.3991338999476284,gamble,1,catch_sure,light,right
116,7,255,ntc,Inf,loss,66,0.4,-40,1,4.879789700033143,gamble,1,target,light,right
116,7,256,ntc,Inf,gain,64,0.66,42,0,2.4131569999735802,sure,1,target,light,left
116,7,257,ntc,Inf,gain,89,0.71,63,1,2.1496059000492096,sure,1,target,light,left
116,7,258,ntc,Inf,loss,88,0.29,-62,0,2.730876399902627,sure,1,target,light,right
116,7,259,ntc,Inf,gain,22,0.34,7,1,1.9847883998882025,gamble,1,target,light,right
116,7,260,ntc,Inf,loss,56,0.1,-50,1,4.370738999918103,sure,1,target,light,left
116,7,261,ntc,Inf,loss,78,0.1,-70,0,1.1659990998450667,gamble,1,target,light,right
116,7,262,ntc,Inf,gain,47,0.29,14,0,2.012511800043285,gamble,1,target,light,right
116,7,263,ntc,Inf,loss,64,0.67,-21,1,1.704440699890256,sure,1,target,light,left
116,7,264,ntc,Inf,gain,69,0.1,7,0,4.3176690000109375,gamble,1,target,light,right
116,7,265,ntc,Inf,loss,73,0.51,-61,1,2.843663499923423,gamble,1,catch_gamble,light,right
116,7,266,ntc,Inf,gain,46,0.39,18,0,4.364237899892032,gamble,1,target,light,right
116,7,267,ntc,Inf,loss,64,0.48,-33,0,2.7321880999952555,gamble,1,target,light,right
116,7,268,ntc,Inf,gain,85,0.39,33,1,1.7620626001153141,gamble,1,target,light,left
116,7,269,ntc,Inf,gain,35,0.45,16,0,2.437990500126034,sure,1,target,light,left
116,7,270,ntc,Inf,gain,70,0.15,10,1,2.068538499996066,gamble,1,target,light,right
116,7,271,ntc,Inf,gain,71,0.78,55,0,2.803859599865973,sure,1,target,light,left
116,7,272,ntc,Inf,gain,52,0.27,14,1,2.9144076998345554,gamble,1,target,light,right
116,7,273,ntc,Inf,gain,71,0.76,54,1,5.784410000080243,sure,1,target,light,left
116,7,274,ntc,Inf,loss,69,0.1,-62,0,2.571601200150326,gamble,1,target,light,right
116,7,275,ntc,Inf,gain,69,0.21,14,1,3.1468827000353485,gamble,1,target,light,right
116,7,276,ntc,Inf,loss,64,0.66,-22,0,2.247490999987349,gamble,1,target,light,right
116,7,277,ntc,Inf,gain,86,0.5,43,0,2.128094899933785,sure,1,target,light,left
116,7,278,ntc,Inf,gain,30,0.41,12,1,1.2293164001312107,sure,1,target,light,left
116,7,279,ntc,Inf,gain,38,0.43,16,1,1.5899475999176502,gamble,1,target,light,right
116,7,280,ntc,Inf,loss,52,0.27,-38,0,1.5891889999620616,gamble,1,target,light,right
116,8,281,tc,1,gain,53,0.38,20,0,0.5263207999523729,sure,0,target,light,left
116,8,282,tc,1,loss,54,0.63,-20,1,0.5549333000089973,gamble,0,target,light,right
116,8,283,tc,1,loss,32,0.36,-20,0,0.6229114001616836,gamble,1,target,light,right
116,8,284,tc,1,loss,35,0.45,-19,1,0.5462408000603318,gamble,0,target,light,right
116,8,285,tc,1,gain,40,0.24,10,1,0.7888068999163806,sure,1,target,light,right
116,8,286,tc,1,gain,87,0.34,9,1,0.9414606001228094,sure,1,catch_gamble,light,right
116,8,287,tc,1,loss,40,0.24,-30,1,0.890736399916932,sure,1,target,light,left
116,8,288,tc,1,gain,85,0.39,33,0,0.8340503999497741,sure,1,target,light,left
116,8,289,tc,1,gain,43,0.35,15,1,0.9793451998848468,sure,1,target,light,right
116,8,290,tc,1,gain,26,0.11,23,0,0.7285631999839097,sure,1,catch_sure,light,left
116,8,291,tc,1,gain,76,0.34,26,0,0.956512900069356,sure,1,target,light,left
116,8,292,tc,1,gain,36,0.65,23,1,0.7838316999841481,sure,1,target,light,left
116,8,293,tc,1,loss,78,0.28,-56,0,0.758416400058195,gamble,1,target,light,left
116,8,294,tc,1,loss,78,0.28,-56,0,0.7663419998716563,sure,0,target,light,right
116,8,295,tc,1,gain,38,0.43,16,1,0.9150404001120478,sure,1,target,light,right
116,8,296,tc,1,gain,26,0.3,8,1,0.8089757000561804,sure,1,target,light,right
116,8,297,tc,1,gain,50,0.2,10,0,0.8222383998800069,sure,1,target,light,left
116,8,298,tc,1,gain,52,0.54,8,NA,NA,NA,NA,catch_gamble,light,NA
116,8,299,tc,1,loss,42,0.57,-18,1,0.7094007001724094,gamble,1,target,light,right
116,8,300,tc,1,loss,53,0.38,-33,0,0.7694206999149173,gamble,1,target,light,left
116,8,301,tc,1,loss,80,0.4,-27,0,0.7473450000397861,sure,0,catch_sure,light,right
116,8,302,tc,1,loss,32,0.58,-13,1,0.6466707000508904,gamble,1,target,light,right
116,8,303,tc,1,gain,86,0.39,34,0,0.6392605998553336,sure,0,target,light,right
116,8,304,tc,1,loss,89,0.71,-26,0,0.8858925998210907,gamble,1,target,light,left
116,8,305,tc,1,loss,64,0.66,-22,1,0.6871719001792371,NA,NA,target,light,NA
116,8,306,tc,1,gain,64,0.48,31,0,0.8938126000575721,sure,1,target,light,left
116,8,307,tc,1,gain,33,0.54,18,1,0.7450549998320639,sure,1,target,light,left
116,8,308,tc,1,loss,69,0.21,-55,0,0.7496267999522388,sure,1,target,light,left
116,8,309,tc,1,loss,51,0.39,-8,1,0.7043255001772195,sure,1,catch_sure,light,left
116,8,310,tc,1,gain,85,0.12,10,1,0.922247399808839,sure,1,target,light,right
116,8,311,tc,1,gain,32,0.58,19,1,0.9688071999698877,gamble,0,target,light,left
116,8,312,tc,1,loss,21,0.2,-17,0,0.9141267000231892,sure,1,target,light,left
116,8,313,tc,1,loss,87,0.34,-78,0,0.9567400000523776,sure,1,catch_gamble,light,left
116,8,314,tc,1,gain,44,0.2,9,1,0.7653634001035243,sure,1,target,light,left
116,8,315,tc,1,gain,66,0.4,26,0,0.8326097000390291,gamble,1,target,light,right
116,8,316,tc,1,loss,88,0.25,-66,1,0.960571700008586,sure,1,target,light,left
116,8,317,tc,1,loss,83,0.52,-40,1,0.8945824999827892,gamble,1,target,light,right
116,8,318,tc,1,loss,78,0.51,-38,0,0.8504062001593411,sure,0,target,light,right
116,8,319,tc,1,loss,78,0.1,-70,0,0.7863976999651641,sure,1,target,light,left
116,8,320,tc,1,gain,52,0.27,14,0,0.8082777999807149,gamble,1,target,light,right
119,1,1,ntc,Inf,loss,64,0.48,-33,1,1.0697741000039969,gamble,0,target,dark,right
119,1,2,ntc,Inf,loss,44,0.2,-35,0,4.306427600007737,gamble,1,target,dark,right
119,1,3,ntc,Inf,gain,33,0.54,18,1,1.132319299998926,sure,1,target,dark,left
119,1,4,ntc,Inf,gain,85,0.12,10,0,1.484256199997617,sure,1,target,dark,left
119,1,5,ntc,Inf,gain,73,0.51,12,1,0.8035452000040095,gamble,0,catch_gamble,dark,right
119,1,6,ntc,Inf,loss,82,0.35,-53,0,1.342863199999556,gamble,1,target,dark,right
119,1,7,ntc,Inf,gain,40,0.85,34,1,1.950749600015115,gamble,1,target,dark,right
119,1,8,ntc,Inf,loss,81,0.46,-44,1,0.6480286000005435,gamble,0,target,dark,right
119,1,9,ntc,Inf,loss,76,0.34,-50,0,2.114693699986674,gamble,1,target,dark,left
119,1,10,ntc,Inf,gain,50,0.18,9,0,0.9812151000078302,sure,1,target,dark,left
119,1,11,ntc,Inf,gain,89,0.71,63,1,0.9824485999997705,sure,1,target,dark,left
119,1,12,ntc,Inf,loss,54,0.63,-20,1,0.6844067000201903,gamble,0,target,dark,left
119,1,13,ntc,Inf,gain,71,0.78,55,1,0.9137209999898914,gamble,0,target,dark,right
119,1,14,ntc,Inf,gain,31,0.2,6,0,1.0650045000074897,gamble,1,target,dark,right
119,1,15,ntc,Inf,gain,78,0.1,8,0,1.5835543000139296,sure,1,target,dark,right
119,1,16,ntc,Inf,gain,64,0.67,43,1,0.748850100004347,gamble,0,target,dark,left
119,1,17,ntc,Inf,loss,78,0.28,-56,0,1.442802000005031,gamble,1,target,dark,left
119,1,18,ntc,Inf,gain,69,0.34,23,1,0.7586695999780204,gamble,0,target,dark,left
119,1,19,ntc,Inf,loss,39,0.41,-23,1,0.6006594000209589,gamble,0,target,dark,right
119,1,20,ntc,Inf,loss,53,0.38,-33,1,1.0952899999974761,gamble,0,target,dark,left
119,1,21,ntc,Inf,gain,22,0.34,7,1,1.279805199999828,sure,1,target,dark,right
119,1,22,ntc,Inf,loss,32,0.36,-20,1,0.9297203999885824,gamble,0,target,dark,left
119,1,23,ntc,Inf,loss,32,0.58,-13,1,1.0836713000026066,gamble,0,target,dark,left
119,1,24,ntc,Inf,loss,52,0.54,-44,1,0.7096480999898631,gamble,0,catch_gamble,dark,right
119,1,25,ntc,Inf,loss,21,0.2,-17,0,2.7075929999991786,sure,1,target,dark,right
119,1,26,ntc,Inf,loss,56,0.1,-50,0,0.8455057999817654,gamble,1,target,dark,right
119,1,27,ntc,Inf,loss,83,0.51,-41,1,1.3841541000001598,gamble,0,target,dark,left
119,1,28,ntc,Inf,gain,71,0.54,38,1,0.7527089999930467,gamble,0,target,dark,right
119,1,29,ntc,Inf,loss,21,0.28,-15,0,1.1953565999865532,gamble,1,target,dark,left
119,1,30,ntc,Inf,gain,67,0.1,29,0,2.903963599994313,gamble,1,catch_sure,dark,left
119,1,31,ntc,Inf,gain,71,0.76,54,1,0.8272338999959175,gamble,0,target,dark,left
119,1,32,ntc,Inf,loss,80,0.4,-27,1,1.485862100002123,gamble,0,catch_sure,dark,right
119,1,33,ntc,Inf,gain,33,0.65,21,1,1.5024104000185616,gamble,1,target,dark,right
119,1,34,ntc,Inf,gain,47,0.51,24,1,4.095009600016056,gamble,1,target,dark,left
119,1,35,ntc,Inf,gain,35,0.45,16,1,3.2882909000036307,gamble,1,target,dark,right
119,1,36,ntc,Inf,loss,35,0.26,-26,0,1.7208311000140384,gamble,1,target,dark,left
119,1,37,ntc,Inf,loss,64,0.67,-21,1,1.2101022000133526,gamble,1,target,dark,right
119,1,38,ntc,Inf,gain,51,0.35,18,1,2.8527256999805104,gamble,1,target,dark,right
119,1,39,ntc,Inf,gain,42,0.57,24,1,1.5806099000037648,sure,1,target,dark,right
119,1,40,ntc,Inf,loss,30,0.41,-18,1,1.7539400999958161,gamble,1,target,dark,right
119,2,41,tc,1,gain,72,0.29,21,0,0.6762541999923997,gamble,1,target,dark,left
119,2,42,tc,1,loss,78,0.28,-56,0,0.7621269999945071,gamble,1,target,dark,left
119,2,43,tc,1,loss,50,0.18,-41,0,0.5407297999772709,gamble,0,target,dark,left
119,2,44,tc,1,loss,32,0.36,-20,0,0.7180803999945056,gamble,0,target,dark,right
119,2,45,tc,1,loss,33,0.54,-15,1,0.6226325000170618,gamble,0,target,dark,right
119,2,46,tc,1,loss,35,0.45,-19,1,0.36991830001352355,gamble,0,target,dark,right
119,2,47,tc,1,gain,55,0.64,35,1,0.49187030000030063,gamble,0,target,dark,left
119,2,48,tc,1,gain,21,0.28,6,0,0.6785487000015564,sure,1,target,dark,left
119,2,49,tc,1,gain,78,0.1,8,NA,NA,NA,NA,target,dark,NA
119,2,50,tc,1,gain,30,0.41,12,1,0.5217311000160407,gamble,0,target,dark,left
119,2,51,tc,1,gain,40,0.24,10,0,0.5150047999923117,sure,0,target,dark,left
119,2,52,tc,1,loss,33,0.69,-30,1,0.3689384000026621,gamble,0,catch_gamble,dark,left
119,2,53,tc,1,loss,38,0.43,-22,1,0.3595865000097547,gamble,0,target,dark,right
119,2,54,tc,1,loss,83,0.52,-40,1,0.3488796000019647,gamble,0,target,dark,left
119,2,55,tc,1,gain,83,0.51,42,1,0.41417780000483617,gamble,0,target,dark,right
119,2,56,tc,1,loss,70,0.15,-60,0,0.5520964999741409,gamble,0,target,dark,left
119,2,57,tc,1,loss,40,0.24,-30,0,0.4534071999951266,gamble,0,target,dark,left
119,2,58,tc,1,gain,78,0.52,41,1,0.6126929000020027,sure,1,target,dark,right
119,2,59,tc,1,gain,44,0.2,9,0,0.6386299000005238,gamble,0,target,dark,left
119,2,60,tc,1,gain,69,0.34,23,0,0.45659199997317046,gamble,0,target,dark,left
119,2,61,tc,1,gain,56,0.1,6,0,0.43780250000418164,gamble,0,target,dark,left
119,2,62,tc,1,gain,35,0.26,9,0,0.5111609000014141,sure,0,target,dark,left
119,2,63,tc,1,gain,22,0.34,7,1,0.7144202000054065,gamble,0,target,dark,right
119,2,64,tc,1,gain,88,0.25,22,0,0.7523388999979943,sure,1,target,dark,left
119,2,65,tc,1,loss,66,0.4,-40,1,0.5610134000016842,gamble,0,target,dark,right
119,2,66,tc,1,gain,26,0.3,8,0,0.6189848000067286,gamble,0,target,dark,left
119,2,67,tc,1,gain,33,0.54,18,0,0.46022619999712333,NA,NA,target,dark,NA
119,2,68,tc,1,loss,69,0.21,-55,0,0.5528791999968234,gamble,1,target,dark,right
119,2,69,tc,1,loss,86,0.5,-43,1,0.4434627000009641,gamble,0,target,dark,left
119,2,70,tc,1,loss,70,0.39,-43,1,0.8341129000182264,gamble,1,target,dark,right
119,2,71,tc,1,gain,89,0.71,63,1,0.6687157000123989,sure,1,target,dark,right
119,2,72,tc,1,loss,36,0.65,-13,1,0.49205719999736175,gamble,0,target,dark,right
119,2,73,tc,1,gain,74,0.53,39,1,0.5026810000126716,gamble,0,target,dark,right
119,2,74,tc,1,loss,84,0.38,-52,1,0.5453195000009146,gamble,0,target,dark,left
119,2,75,tc,1,loss,72,0.29,-51,0,0.6319206999905873,gamble,0,target,dark,left
119,2,76,tc,1,loss,81,0.46,-44,1,0.6205034000158776,gamble,0,target,dark,left
119,2,77,tc,1,gain,84,0.38,32,1,0.5038046000117902,sure,0,target,dark,left
119,2,78,tc,1,gain,83,0.52,43,1,0.5157302000152413,gamble,0,target,dark,left
119,2,79,tc,1,loss,52,0.54,-44,1,0.4697091999987606,gamble,0,catch_gamble,dark,right
119,2,80,tc,1,loss,35,0.26,-26,0,0.5716395000054035,gamble,0,target,dark,left
119,4,121,tc,1,gain,67,0.1,29,0,0.686768999992637,sure,1,catch_sure,dark,left
119,4,122,tc,1,gain,36,0.65,23,1,0.6568225999944843,sure,1,target,dark,right
119,4,123,tc,1,loss,64,0.48,-33,1,0.4567381000088062,gamble,0,target,dark,left
119,4,124,tc,1,loss,50,0.2,-40,0,0.5973480000102427,gamble,0,target,dark,right
119,4,125,tc,1,loss,76,0.34,-50,1,0.6753318999835756,gamble,0,target,dark,right
119,4,126,tc,1,loss,78,0.51,-38,1,0.7179706000024453,sure,1,target,dark,right
119,4,127,tc,1,gain,31,0.2,6,0,0.7532317000150215,gamble,0,target,dark,left
119,4,128,tc,1,gain,78,0.28,22,0,0.5451646000146866,sure,0,target,dark,right
119,4,129,tc,1,gain,78,0.28,22,0,0.6244473000115249,gamble,0,target,dark,left
119,4,130,tc,1,loss,33,0.65,-12,1,0.5284688999818172,gamble,0,target,dark,right
119,4,131,tc,1,gain,65,0.59,38,1,0.5236584999947809,sure,0,target,dark,right
119,4,132,tc,1,gain,89,0.48,43,1,0.5342282000056002,sure,0,target,dark,right
119,4,133,tc,1,loss,65,0.59,-27,1,0.8662634000065736,NA,NA,target,dark,NA
119,4,134,tc,1,loss,88,0.29,-62,0,0.6808745000162162,NA,NA,target,dark,NA
119,4,135,tc,1,loss,82,0.35,-53,1,0.4974738000018988,gamble,0,target,dark,left
119,4,136,tc,1,loss,74,0.53,-35,1,0.5087579000100959,gamble,0,target,dark,right
119,4,137,tc,1,loss,51,0.35,-33,1,0.6046964999986812,gamble,0,target,dark,left
119,4,138,tc,1,loss,78,0.52,-37,1,0.4419822999916505,gamble,0,target,dark,left
119,4,139,tc,1,gain,64,0.48,31,NA,NA,NA,NA,target,dark,NA
119,4,140,tc,1,gain,86,0.5,43,0,0.6772775999852456,gamble,1,target,dark,left
119,4,141,tc,1,gain,26,0.11,23,0,0.6398575999774039,sure,1,catch_sure,dark,right
119,4,142,tc,1,loss,42,0.57,-18,1,0.5279121000203304,gamble,0,target,dark,left
119,4,143,tc,1,loss,22,0.34,-15,1,0.6838294999906793,gamble,1,target,dark,left
119,4,144,tc,1,loss,87,0.34,-78,0,0.4510624000104144,gamble,0,catch_gamble,dark,right
119,4,145,tc,1,loss,85,0.12,-75,1,0.5703193000226747,gamble,0,target,dark,left
119,4,146,tc,1,gain,78,0.51,40,1,0.5796414999931585,gamble,0,target,dark,right
119,4,147,tc,1,gain,47,0.51,24,1,0.5062251999916043,NA,NA,target,dark,NA
119,4,148,tc,1,gain,53,0.38,20,0,0.584869099984644,gamble,1,target,dark,left
119,4,149,tc,1,loss,55,0.64,-20,1,0.5261383000179194,gamble,0,target,dark,left
119,4,150,tc,1,gain,69,0.21,14,0,0.6507259999925736,NA,NA,target,dark,NA
119,4,151,tc,1,gain,33,0.69,3,1,0.7280576000048313,gamble,1,catch_gamble,dark,right
119,4,152,tc,1,loss,43,0.35,-28,0,0.6806920999952126,gamble,1,target,dark,left
119,4,153,tc,1,gain,64,0.66,42,0,0.5492951000051107,sure,1,target,dark,right
119,4,154,tc,1,loss,89,0.71,-26,1,0.5666582999983802,gamble,0,target,dark,right
119,4,155,tc,1,gain,52,0.54,8,1,0.64988819998689,gamble,0,catch_gamble,dark,left
119,4,156,tc,1,gain,52,0.24,12,0,0.4631486000143923,gamble,0,target,dark,right
119,4,157,tc,1,loss,40,0.85,-6,1,0.5711005000048317,sure,1,target,dark,left
119,4,158,tc,1,gain,52,0.27,14,0,0.6484723000030499,gamble,1,target,dark,right
119,4,159,tc,1,gain,86,0.39,34,1,0.8323948000033852,sure,1,target,dark,left
119,4,160,tc,1,loss,44,0.2,-35,0,0.6030252999917138,gamble,0,target,dark,left
119,5,161,ntc,Inf,loss,70,0.39,-43,0,4.545744100003503,sure,1,target,dark,left
119,5,162,ntc,Inf,loss,65,0.59,-27,1,1.3290039999992587,gamble,1,target,dark,left
119,5,163,ntc,Inf,loss,22,0.34,-15,0,1.3382406999880914,gamble,1,target,dark,right
119,5,164,ntc,Inf,gain,21,0.2,4,0,1.0368715000222437,gamble,1,target,dark,right
119,5,165,ntc,Inf,loss,71,0.76,-17,1,1.1333700999966823,gamble,1,target,dark,right
119,5,166,ntc,Inf,gain,26,0.3,8,0,4.883333400008269,gamble,1,target,dark,right
119,5,167,ntc,Inf,gain,39,0.41,16,1,3.0172824999899603,gamble,1,target,dark,right
119,5,168,ntc,Inf,loss,87,0.34,-78,0,2.8631733000220265,gamble,1,catch_gamble,dark,left
119,5,169,ntc,Inf,gain,70,0.15,10,0,1.5884553999931086,gamble,1,target,dark,right
119,5,170,ntc,Inf,loss,72,0.29,-51,0,2.915032399992924,gamble,1,target,dark,right
119,5,171,ntc,Inf,loss,42,0.57,-18,1,0.898252400016645,gamble,0,target,dark,left
119,5,172,ntc,Inf,gain,84,0.38,32,1,1.622874699998647,sure,1,target,dark,left
119,5,173,ntc,Inf,loss,86,0.5,-43,0,2.9901398999791127,gamble,1,target,dark,left
119,5,174,ntc,Inf,gain,69,0.21,14,0,10.912110400007805,sure,1,target,dark,left
119,5,175,ntc,Inf,gain,47,0.29,14,0,2.452623899996979,sure,1,target,dark,left
119,5,176,ntc,Inf,gain,45,0.14,6,0,7.339917700010119,sure,1,target,dark,left
119,5,177,ntc,Inf,loss,33,0.54,-15,1,1.0864560000190977,gamble,1,target,dark,left
119,5,178,ntc,Inf,gain,78,0.28,22,0,1.231764199997997,gamble,1,target,dark,left
119,5,179,ntc,Inf,gain,51,0.39,43,0,4.851663400011603,gamble,1,catch_sure,dark,right
119,5,180,ntc,Inf,gain,54,0.63,34,1,1.1829007999913301,sure,1,target,dark,left
119,5,181,ntc,Inf,gain,72,0.29,21,0,7.567524299985962,gamble,1,target,dark,right
119,5,182,ntc,Inf,loss,52,0.24,-40,0,3.793384899996454,gamble,1,target,dark,left
119,5,183,ntc,Inf,gain,78,0.51,40,0,4.8593186000071,gamble,1,target,dark,right
119,5,184,ntc,Inf,gain,82,0.35,29,0,2.0745323000010103,gamble,1,target,dark,right
119,5,185,ntc,Inf,gain,46,0.39,18,1,5.097207299986621,sure,1,target,dark,left
119,5,186,ntc,Inf,loss,69,0.34,-46,1,6.128386299998965,gamble,1,target,dark,left
119,5,187,ntc,Inf,gain,40,0.24,10,0,3.0076344000117388,gamble,1,target,dark,right
119,5,188,ntc,Inf,gain,89,0.48,43,0,4.6528862999984995,sure,1,target,dark,left
119,5,189,ntc,Inf,loss,89,0.48,-46,0,2.326802499999758,gamble,1,target,dark,right
119,5,190,ntc,Inf,loss,71,0.54,-33,1,2.0520877999952063,NA,NA,target,dark,NA
119,5,191,ntc,Inf,gain,86,0.39,34,1,2.8320082999998704,gamble,1,target,dark,right
119,5,192,ntc,Inf,loss,50,0.2,-40,0,3.624603600008413,gamble,1,target,dark,left
119,5,193,ntc,Inf,loss,78,0.51,-38,0,5.451859299995704,sure,1,target,dark,left
119,5,194,ntc,Inf,loss,78,0.1,-70,1,9.225100499985274,NA,NA,target,dark,NA
119,5,195,ntc,Inf,loss,78,0.52,-37,1,3.2817573999927845,gamble,1,target,dark,right
119,5,196,ntc,Inf,gain,88,0.29,26,0,4.490960199997062,NA,NA,target,dark,NA
119,5,197,ntc,Inf,loss,57,0.45,-31,1,14.102880999998888,NA,NA,target,dark,NA
119,5,198,ntc,Inf,gain,55,0.64,35,1,2.0033168000227306,NA,NA,target,dark,NA
119,5,199,ntc,Inf,loss,22,0.17,-18,0,3.273257199994987,NA,NA,target,dark,NA
119,5,200,ntc,Inf,loss,51,0.39,-8,0,3.8018867000064347,NA,NA,catch_sure,dark,NA
119,6,201,tc,1,loss,88,0.25,-66,0,0.6110197999805678,gamble,1,target,dark,right
119,6,202,tc,1,gain,47,0.29,14,0,0.8369469000026584,gamble,1,target,dark,right
119,6,203,tc,1,loss,64,0.66,-22,1,0.4742841999977827,gamble,0,target,dark,right
119,6,204,tc,1,loss,78,0.28,-56,0,0.8222135000105482,gamble,1,target,dark,left
119,6,205,tc,1,gain,71,0.76,54,0,0.39810690001468174,gamble,0,target,dark,left
119,6,206,tc,1,gain,64,0.67,43,1,0.4100550999864936,gamble,0,target,dark,left
119,6,207,tc,1,loss,22,0.17,-18,0,0.45009230001596734,gamble,0,target,dark,left
119,6,208,tc,1,loss,52,0.27,-38,1,0.6093288000265602,gamble,1,target,dark,right
119,6,209,tc,1,gain,80,0.4,53,1,0.4912975000042934,gamble,0,catch_sure,dark,left
119,6,210,tc,1,gain,35,0.45,16,0,0.9799116999784019,sure,1,target,dark,right
119,6,211,tc,1,loss,69,0.1,-62,0,0.563211600005161,gamble,1,target,dark,left
119,6,212,tc,1,loss,47,0.29,-33,NA,NA,NA,NA,target,dark,NA
119,6,213,tc,1,loss,83,0.51,-41,1,0.45641230000182986,gamble,0,target,dark,left
119,6,214,tc,1,loss,26,0.3,-18,0,0.4770239999925252,gamble,0,target,dark,left
119,6,215,tc,1,loss,52,0.24,-40,0,0.6250473000109196,gamble,1,target,dark,right
119,6,216,tc,1,gain,73,0.51,12,0,0.6156009999976959,NA,NA,catch_gamble,dark,NA
119,6,217,tc,1,loss,30,0.41,-18,1,0.8082332999911159,gamble,1,target,dark,right
119,6,218,tc,1,loss,22,0.39,-13,1,0.6668895999900997,gamble,0,target,dark,left
119,6,219,tc,1,loss,67,0.1,-38,0,0.5801701999735087,gamble,1,catch_sure,dark,left
119,6,220,tc,1,gain,46,0.39,18,0,0.7267407999897841,gamble,1,target,dark,left
119,6,221,tc,1,loss,57,0.45,-31,1,0.9033712999953423,gamble,1,target,dark,right
119,6,222,tc,1,gain,45,0.46,21,0,0.6112693999893963,gamble,1,target,dark,right
119,6,223,tc,1,gain,70,0.39,27,0,0.8625662999984343,gamble,1,target,dark,right
119,6,224,tc,1,loss,53,0.38,-33,1,0.6198933999985456,gamble,0,target,dark,right
119,6,225,tc,1,loss,86,0.39,-52,1,0.7057921000232454,sure,1,target,dark,right
119,6,226,tc,1,loss,64,0.67,-21,1,0.4411299000203144,gamble,0,target,dark,right
119,6,227,tc,1,loss,71,0.76,-17,1,0.5890446999983396,sure,1,target,dark,left
119,6,228,tc,1,loss,21,0.2,-17,0,0.5663477999914903,gamble,1,target,dark,right
119,6,229,tc,1,gain,39,0.41,16,1,0.5296192000096198,NA,NA,target,dark,NA
119,6,230,tc,1,gain,51,0.35,18,0,0.7348723000031896,gamble,1,target,dark,left
119,6,231,tc,1,gain,50,0.18,9,0,0.6995132000010926,sure,1,target,dark,left
119,6,232,tc,1,gain,51,0.39,43,0,0.752841300010914,NA,NA,catch_sure,dark,NA
119,6,233,tc,1,gain,76,0.34,26,0,0.8894813000224531,sure,1,target,dark,right
119,6,234,tc,1,gain,87,0.34,9,NA,NA,NA,NA,catch_gamble,dark,NA
119,6,235,tc,1,gain,70,0.15,10,0,0.42737280001165345,gamble,0,target,dark,right
119,6,236,tc,1,loss,51,0.39,-8,1,0.5773316000122577,gamble,0,catch_sure,dark,right
119,6,237,tc,1,gain,32,0.58,19,0,0.5539197000034619,sure,0,target,dark,right
119,6,238,tc,1,gain,22,0.39,9,0,0.7032328999775928,sure,1,target,dark,right
119,6,239,tc,1,gain,69,0.1,7,0,0.9085040000209119,sure,1,target,dark,left
119,6,240,tc,1,gain,66,0.4,26,0,0.903714799991576,gamble,1,target,dark,left
119,7,241,ntc,Inf,loss,69,0.21,-55,0,4.259719099994982,sure,1,target,dark,left
119,7,242,ntc,Inf,gain,30,0.41,12,0,3.47969199999352,sure,1,target,dark,right
119,7,243,ntc,Inf,gain,52,0.54,8,1,1.793616100010695,gamble,1,catch_gamble,dark,left
119,7,244,ntc,Inf,gain,21,0.28,6,1,2.8521663999999873,gamble,1,target,dark,right
119,7,245,ntc,Inf,gain,85,0.39,33,0,4.027409600006649,gamble,1,target,dark,right
119,7,246,ntc,Inf,loss,67,0.1,-38,0,2.032029699999839,gamble,1,catch_sure,dark,right
119,7,247,ntc,Inf,loss,43,0.35,-28,0,2.223914500005776,gamble,1,target,dark,right
119,7,248,ntc,Inf,loss,89,0.71,-26,1,1.236536199983675,gamble,1,target,dark,left
119,7,249,ntc,Inf,gain,69,0.1,7,1,1.917174799978966,gamble,1,target,dark,right
119,7,250,ntc,Inf,loss,31,0.2,-25,1,3.7237869999953546,gamble,1,target,dark,left
119,7,251,ntc,Inf,loss,85,0.39,-52,0,3.1563976000179537,gamble,1,target,dark,right
119,7,252,ntc,Inf,loss,51,0.35,-33,0,2.3415690999827348,gamble,1,target,dark,left
119,7,253,ntc,Inf,gain,65,0.59,38,1,1.426852999982657,gamble,1,target,dark,left
119,7,254,ntc,Inf,gain,76,0.34,26,0,2.0367668000108097,gamble,1,target,dark,right
119,7,255,ntc,Inf,gain,64,0.48,31,0,2.1880807999987155,sure,1,target,dark,left
119,7,256,ntc,Inf,loss,83,0.52,-40,0,2.727290400012862,gamble,1,target,dark,right
119,7,257,ntc,Inf,loss,88,0.25,-66,0,4.418622400000459,gamble,1,target,dark,right
119,7,258,ntc,Inf,loss,70,0.15,-60,1,2.9371055999945384,gamble,1,target,dark,right
119,7,259,ntc,Inf,gain,50,0.2,10,1,1.7843969000095967,NA,NA,target,dark,NA
119,7,260,ntc,Inf,loss,38,0.43,-22,0,3.1363854000228457,NA,NA,target,dark,NA
119,7,261,ntc,Inf,loss,55,0.64,-20,1,2.075635399989551,NA,NA,target,dark,NA
119,7,262,ntc,Inf,loss,40,0.24,-30,0,2.7281837000045925,NA,NA,target,dark,NA
119,7,263,ntc,Inf,gain,26,0.11,23,0,2.7520807000109926,sure,1,catch_sure,dark,left
119,7,264,ntc,Inf,gain,80,0.4,53,0,5.3800401000189595,NA,NA,catch_sure,dark,NA
119,7,265,ntc,Inf,gain,56,0.1,6,1,2.1419201999960933,sure,1,target,dark,right
119,7,266,ntc,Inf,loss,33,0.65,-12,1,6.509866199980024,NA,NA,target,dark,NA
119,7,267,ntc,Inf,loss,78,0.28,-56,0,11.257802800013451,NA,NA,target,dark,NA
119,7,268,ntc,Inf,gain,52,0.24,12,0,3.9869793000107165,NA,NA,target,dark,NA
119,7,269,ntc,Inf,gain,78,0.52,41,0,1.8961903000017628,NA,NA,target,dark,NA
119,7,270,ntc,Inf,loss,84,0.38,-52,0,3.5574814999999944,NA,NA,target,dark,NA
119,7,271,ntc,Inf,loss,79,0.25,-59,0,2.1647492999909446,NA,NA,target,dark,NA
119,7,272,ntc,Inf,loss,73,0.51,-61,1,2.9373429999977816,NA,NA,catch_gamble,dark,NA
119,7,273,ntc,Inf,gain,79,0.25,20,0,2.633299999986775,NA,NA,target,dark,NA
119,7,274,ntc,Inf,loss,45,0.46,-24,0,5.041204600012861,NA,NA,target,dark,NA
119,7,275,ntc,Inf,loss,74,0.53,-35,0,9.361224599997513,NA,NA,target,dark,NA
119,7,276,ntc,Inf,gain,44,0.2,9,1,1.5830465000180993,sure,1,target,dark,left
119,7,277,ntc,Inf,gain,22,0.17,4,1,2.0888710000144783,NA,NA,target,dark,NA
119,7,278,ntc,Inf,gain,53,0.38,20,0,0.8626957999949809,sure,1,target,dark,left
119,7,279,ntc,Inf,gain,22,0.39,9,1,4.2814348000101745,NA,NA,target,dark,NA
119,7,280,ntc,Inf,gain,78,0.28,22,0,1.4853855000110343,sure,1,target,dark,right
119,8,281,tc,1,loss,47,0.51,-23,0,0.9699768999998923,gamble,1,target,dark,right
119,8,282,tc,1,gain,32,0.36,12,0,0.686530999984825,sure,1,target,dark,right
119,8,283,tc,1,gain,43,0.35,15,0,0.5539343999989796,gamble,1,target,dark,right
119,8,284,tc,1,gain,57,0.45,26,1,0.8791112000180874,NA,NA,target,dark,NA
119,8,285,tc,1,gain,71,0.54,38,0,0.6297403000062332,gamble,1,target,dark,right
119,8,286,tc,1,gain,38,0.43,16,0,0.7683915000234265,NA,NA,target,dark,NA
119,8,287,tc,1,gain,71,0.78,55,0,0.6910191000206396,gamble,1,target,dark,left
119,8,288,tc,1,gain,42,0.57,24,1,0.7169426000036765,sure,1,target,dark,right
119,8,289,tc,1,loss,79,0.25,-59,0,0.8196275999944191,NA,NA,target,dark,NA
119,8,290,tc,1,loss,31,0.2,-25,1,0.7342104999988806,sure,0,target,dark,right
119,8,291,tc,1,loss,73,0.51,-61,1,0.531500800017966,sure,0,catch_gamble,dark,left
119,8,292,tc,1,gain,50,0.2,10,0,0.7801316000113729,NA,NA,target,dark,NA
119,8,293,tc,1,loss,26,0.11,-3,NA,NA,NA,NA,catch_sure,dark,NA
119,8,294,tc,1,loss,56,0.1,-50,0,0.6506810999999288,NA,NA,target,dark,NA
119,8,295,tc,1,gain,88,0.29,26,0,0.5913244000112172,sure,1,target,dark,left
119,8,296,tc,1,loss,46,0.39,-28,0,0.7486196999961976,NA,NA,target,dark,NA
119,8,297,tc,1,loss,39,0.41,-23,1,0.5538611999945715,NA,NA,target,dark,NA
119,8,298,tc,1,loss,45,0.46,-24,1,0.7291144999908283,NA,NA,target,dark,NA
119,8,299,tc,1,gain,22,0.17,4,0,0.521064500004286,NA,NA,target,dark,NA
119,8,300,tc,1,loss,21,0.28,-15,NA,NA,NA,NA,target,dark,NA
119,8,301,tc,1,gain,85,0.39,33,0,0.6695853999990504,NA,NA,target,dark,NA
119,8,302,tc,1,loss,32,0.58,-13,1,0.6329284000094049,NA,NA,target,dark,NA
119,8,303,tc,1,gain,79,0.25,20,0,0.9188632000004873,NA,NA,target,dark,NA
119,8,304,tc,1,loss,54,0.63,-20,1,0.5888130000093952,NA,NA,target,dark,NA
119,8,305,tc,1,gain,82,0.35,29,0,0.7041092000145,NA,NA,target,dark,NA
119,8,306,tc,1,gain,81,0.46,37,1,0.5614369999966584,NA,NA,target,dark,NA
119,8,307,tc,1,gain,45,0.14,6,0,0.6889900999958627,NA,NA,target,dark,NA
119,8,308,tc,1,loss,80,0.4,-27,1,0.8000351999944542,NA,NA,catch_sure,dark,NA
119,8,309,tc,1,gain,21,0.2,4,1,0.6018690000055358,NA,NA,target,dark,NA
119,8,310,tc,1,gain,33,0.65,21,0,0.7378798999998253,NA,NA,target,dark,NA
119,8,311,tc,1,loss,71,0.54,-33,1,0.5451386999920942,NA,NA,target,dark,NA
119,8,312,tc,1,gain,40,0.85,34,1,0.6138452000159305,NA,NA,target,dark,NA
119,8,313,tc,1,loss,78,0.1,-70,NA,NA,NA,NA,target,dark,NA
119,8,314,tc,1,loss,71,0.78,-16,1,0.5230151999858208,NA,NA,target,dark,NA
119,8,315,tc,1,gain,54,0.63,34,1,0.6263395000132732,NA,NA,target,dark,NA
119,8,316,tc,1,gain,85,0.12,10,1,0.6702797999896575,NA,NA,target,dark,NA
119,8,317,tc,1,loss,45,0.14,-39,0,0.7914861000026576,NA,NA,target,dark,NA
119,8,318,tc,1,loss,69,0.34,-46,1,0.6108573999954388,NA,NA,target,dark,NA
119,8,319,tc,1,loss,89,0.48,-46,1,0.5967359000060242,NA,NA,target,dark,NA
119,8,320,tc,1,loss,85,0.39,-52,1,0.6694064000039361,NA,NA,target,dark,NA
122,1,1,ntc,Inf,loss,32,0.36,-20,0,7.080698100000063,NA,NA,target,light,NA
122,1,2,ntc,Inf,loss,33,0.69,-30,1,1.5139248000000407,NA,NA,catch_gamble,light,NA
122,1,3,ntc,Inf,loss,65,0.59,-27,1,2.1112299999999777,NA,NA,target,light,NA
122,1,4,ntc,Inf,gain,70,0.15,10,1,4.2384218000001965,NA,NA,target,light,NA
122,1,5,ntc,Inf,loss,83,0.51,-41,1,1.0696905999998307,NA,NA,target,light,NA
122,1,6,ntc,Inf,loss,38,0.43,-22,1,2.5316013999999996,NA,NA,target,light,NA
122,1,7,ntc,Inf,gain,43,0.35,15,0,3.0742034999998396,NA,NA,target,light,NA
122,1,8,ntc,Inf,loss,52,0.27,-38,0,3.6121296000001166,NA,NA,target,light,NA
122,1,9,ntc,Inf,loss,64,0.66,-22,1,1.0894432000000052,NA,NA,target,light,NA
122,1,10,ntc,Inf,loss,88,0.29,-62,0,8.66869399999996,NA,NA,target,light,NA
122,1,11,ntc,Inf,loss,36,0.65,-13,1,1.0032796000000417,NA,NA,target,light,NA
122,1,12,ntc,Inf,gain,70,0.39,27,1,3.027234700000008,NA,NA,target,light,NA
122,1,13,ntc,Inf,loss,52,0.54,-44,1,1.1244231000000582,NA,NA,catch_gamble,light,NA
122,1,14,ntc,Inf,gain,35,0.45,16,1,1.3250711000000592,NA,NA,target,light,NA
122,1,15,ntc,Inf,gain,33,0.69,3,1,1.5049693000000843,NA,NA,catch_gamble,light,NA
122,1,16,ntc,Inf,gain,26,0.11,23,0,2.358878200000163,NA,NA,catch_sure,light,NA
122,1,17,ntc,Inf,gain,89,0.48,43,1,1.764188500000273,NA,NA,target,light,NA
122,1,18,ntc,Inf,gain,69,0.34,23,1,1.8747700999997505,NA,NA,target,light,NA
122,1,19,ntc,Inf,gain,51,0.35,18,1,1.277415800000199,NA,NA,target,light,NA
122,1,20,ntc,Inf,gain,52,0.27,14,1,1.838037600000007,NA,NA,target,light,NA
122,1,21,ntc,Inf,loss,57,0.45,-31,1,0.9252748000003521,NA,NA,target,light,NA
122,1,22,ntc,Inf,loss,70,0.15,-60,1,2.8258544000000256,NA,NA,target,light,NA
122,1,23,ntc,Inf,gain,45,0.14,6,1,2.1171243999997387,NA,NA,target,light,NA
122,1,24,ntc,Inf,gain,74,0.53,39,1,0.9830606000000444,NA,NA,target,light,NA
122,1,25,ntc,Inf,gain,33,0.54,18,1,0.9229347000000416,NA,NA,target,light,NA
122,1,26,ntc,Inf,gain,35,0.26,9,1,2.9482622999998966,NA,NA,target,light,NA
122,1,27,ntc,Inf,gain,78,0.52,41,1,1.527492700000039,NA,NA,target,light,NA
122,1,28,ntc,Inf,loss,22,0.39,-13,1,1.3254062000000886,NA,NA,target,light,NA
122,1,29,ntc,Inf,gain,22,0.39,9,1,1.3693211999998312,NA,NA,target,light,NA
122,1,30,ntc,Inf,loss,21,0.2,-17,1,2.0439162000002398,NA,NA,target,light,NA
122,1,31,ntc,Inf,gain,57,0.45,26,1,3.8991903000001003,NA,NA,target,light,NA
122,1,32,ntc,Inf,loss,71,0.54,-33,1,2.0257786000001943,NA,NA,target,light,NA
122,1,33,ntc,Inf,loss,52,0.24,-40,0,4.743714400000044,NA,NA,target,light,NA
122,1,34,ntc,Inf,loss,35,0.45,-19,1,1.2196215999997548,NA,NA,target,light,NA
122,1,35,ntc,Inf,gain,64,0.66,42,1,2.3388952999998764,NA,NA,target,light,NA
