"","X","Ss","block.number","Description","Trial","RT","Acc","Angle","Condition","Target","Angle_main"
"1",65,2,2,"UnConscious",1,427,1,315,"Same_Path","Rectangle","FALSE"
"2",66,2,2,"UnConscious",2,426,1,270,"Same_Path","Rectangle","TRUE"
"3",67,2,2,"UnConscious",3,593,1,45,"Different_Path","Diamond","FALSE"
"4",68,2,2,"UnConscious",4,462,1,45,"Same_Path","Rectangle","FALSE"
"5",69,2,2,"UnConscious",5,677,1,0,"Same_Path","Diamond","TRUE"
"6",70,2,2,"UnConscious",6,436,1,180,"Same_Path","Rectangle","TRUE"
"7",71,2,2,"UnConscious",7,479,1,180,"Different_Path","Diamond","TRUE"
"8",72,2,2,"UnConscious",8,398,1,180,"Different_Path","Rectangle","TRUE"
"9",73,2,2,"UnConscious",9,529,1,180,"Different_Path","Diamond","TRUE"
"10",74,2,2,"UnConscious",10,414,1,0,"Different_Path","Diamond","TRUE"
"11",75,2,2,"UnConscious",11,411,1,135,"Same_Path","Rectangle","FALSE"
"12",76,2,2,"UnConscious",12,440,1,315,"Different_Path","Diamond","FALSE"
"13",77,2,2,"UnConscious",13,441,1,90,"Different_Path","Rectangle","TRUE"
"14",78,2,2,"UnConscious",14,470,1,0,"Different_Path","Rectangle","TRUE"
"15",79,2,2,"UnConscious",15,481,1,180,"Same_Path","Rectangle","TRUE"
"16",80,2,2,"UnConscious",16,446,1,0,"Different_Path","Rectangle","TRUE"
"18",82,2,2,"UnConscious",18,460,1,90,"Same_Path","Diamond","TRUE"
"19",83,2,2,"UnConscious",19,567,1,90,"Different_Path","Diamond","TRUE"
"20",84,2,2,"UnConscious",20,492,1,90,"Same_Path","Diamond","TRUE"
"21",85,2,2,"UnConscious",21,483,1,0,"Different_Path","Rectangle","TRUE"
"22",86,2,2,"UnConscious",22,432,1,315,"Same_Path","Diamond","FALSE"
"23",87,2,2,"UnConscious",23,447,1,90,"Same_Path","Rectangle","TRUE"
"24",88,2,2,"UnConscious",24,382,1,45,"Same_Path","Diamond","FALSE"
"25",89,2,2,"UnConscious",25,425,1,135,"Same_Path","Diamond","FALSE"
"26",90,2,2,"UnConscious",26,500,1,135,"Different_Path","Rectangle","FALSE"
"27",91,2,2,"UnConscious",27,583,1,225,"Different_Path","Rectangle","FALSE"
"28",92,2,2,"UnConscious",28,396,1,225,"Same_Path","Rectangle","FALSE"
"29",93,2,2,"UnConscious",29,491,1,135,"Different_Path","Diamond","FALSE"
"30",94,2,2,"UnConscious",30,404,1,225,"Same_Path","Diamond","FALSE"
"31",95,2,2,"UnConscious",31,463,1,180,"Different_Path","Diamond","TRUE"
"33",97,2,2,"UnConscious",33,501,1,270,"Different_Path","Rectangle","TRUE"
"34",98,2,2,"UnConscious",34,676,1,0,"Same_Path","Rectangle","TRUE"
"35",99,2,2,"UnConscious",35,607,1,180,"Same_Path","Diamond","TRUE"
"36",100,2,2,"UnConscious",36,652,1,45,"Different_Path","Rectangle","FALSE"
"37",101,2,2,"UnConscious",37,563,1,135,"Different_Path","Diamond","FALSE"
"39",103,2,2,"UnConscious",39,549,1,45,"Different_Path","Diamond","FALSE"
"40",104,2,2,"UnConscious",40,514,1,270,"Same_Path","Diamond","TRUE"
"41",105,2,2,"UnConscious",41,451,1,90,"Same_Path","Rectangle","TRUE"
"42",106,2,2,"UnConscious",42,558,1,225,"Different_Path","Rectangle","FALSE"
"43",107,2,2,"UnConscious",43,457,1,315,"Different_Path","Rectangle","FALSE"
"44",108,2,2,"UnConscious",44,436,1,135,"Same_Path","Rectangle","FALSE"
"45",109,2,2,"UnConscious",45,460,1,315,"Different_Path","Rectangle","FALSE"
"46",110,2,2,"UnConscious",46,566,1,225,"Different_Path","Diamond","FALSE"
"47",111,2,2,"UnConscious",47,467,1,90,"Same_Path","Rectangle","TRUE"
"48",112,2,2,"UnConscious",48,1150,1,90,"Different_Path","Diamond","TRUE"
"49",113,2,2,"UnConscious",49,466,1,135,"Different_Path","Rectangle","FALSE"
"50",114,2,2,"UnConscious",50,1003,1,225,"Same_Path","Diamond","FALSE"
"51",115,2,2,"UnConscious",51,498,1,315,"Different_Path","Rectangle","FALSE"
"52",116,2,2,"UnConscious",52,501,1,0,"Different_Path","Rectangle","TRUE"
"53",117,2,2,"UnConscious",53,606,1,225,"Different_Path","Diamond","FALSE"
"54",118,2,2,"UnConscious",54,511,1,0,"Different_Path","Rectangle","TRUE"
"56",120,2,2,"UnConscious",56,581,1,225,"Different_Path","Rectangle","FALSE"
"57",121,2,2,"UnConscious",57,506,1,90,"Same_Path","Diamond","TRUE"
"58",122,2,2,"UnConscious",58,435,1,0,"Different_Path","Rectangle","TRUE"
"59",123,2,2,"UnConscious",59,604,1,45,"Same_Path","Diamond","FALSE"
"60",124,2,2,"UnConscious",60,469,1,180,"Same_Path","Rectangle","TRUE"
"61",125,2,2,"UnConscious",61,468,1,45,"Different_Path","Rectangle","FALSE"
"62",126,2,2,"UnConscious",62,455,1,45,"Same_Path","Diamond","FALSE"
"63",127,2,2,"UnConscious",63,528,1,45,"Different_Path","Diamond","FALSE"
"64",128,2,2,"UnConscious",64,575,1,90,"Different_Path","Diamond","TRUE"
"65",129,2,2,"UnConscious",65,474,1,315,"Same_Path","Diamond","FALSE"
"66",130,2,2,"UnConscious",66,509,1,135,"Different_Path","Rectangle","FALSE"
"67",131,2,2,"UnConscious",67,460,1,180,"Same_Path","Diamond","TRUE"
"68",132,2,2,"UnConscious",68,577,1,135,"Same_Path","Diamond","FALSE"
"69",133,2,2,"UnConscious",69,500,1,90,"Different_Path","Diamond","TRUE"
"70",134,2,2,"UnConscious",70,467,1,0,"Same_Path","Diamond","TRUE"
"71",135,2,2,"UnConscious",71,570,1,45,"Different_Path","Rectangle","FALSE"
"72",136,2,2,"UnConscious",72,409,1,225,"Different_Path","Diamond","FALSE"
"73",137,2,2,"UnConscious",73,502,1,270,"Different_Path","Diamond","TRUE"
"74",138,2,2,"UnConscious",74,507,1,315,"Same_Path","Rectangle","FALSE"
"75",139,2,2,"UnConscious",75,520,1,225,"Different_Path","Diamond","FALSE"
"76",140,2,2,"UnConscious",76,551,1,45,"Same_Path","Rectangle","FALSE"
"77",141,2,2,"UnConscious",77,570,1,225,"Different_Path","Rectangle","FALSE"
"78",142,2,2,"UnConscious",78,513,1,315,"Different_Path","Diamond","FALSE"
"79",143,2,2,"UnConscious",79,1210,1,180,"Different_Path","Diamond","TRUE"
"80",144,2,2,"UnConscious",80,580,1,45,"Different_Path","Diamond","FALSE"
"81",145,2,2,"UnConscious",81,929,1,135,"Same_Path","Diamond","FALSE"
"82",146,2,2,"UnConscious",82,518,1,270,"Same_Path","Diamond","TRUE"
"83",147,2,2,"UnConscious",83,457,1,315,"Different_Path","Rectangle","FALSE"
"84",148,2,2,"UnConscious",84,484,1,270,"Different_Path","Diamond","TRUE"
"85",149,2,2,"UnConscious",85,455,1,45,"Different_Path","Rectangle","FALSE"
"86",150,2,2,"UnConscious",86,512,1,90,"Different_Path","Diamond","TRUE"
"87",151,2,2,"UnConscious",87,457,1,180,"Same_Path","Diamond","TRUE"
"88",152,2,2,"UnConscious",88,646,1,135,"Same_Path","Diamond","FALSE"
"89",153,2,2,"UnConscious",89,449,1,225,"Same_Path","Rectangle","FALSE"
"90",154,2,2,"UnConscious",90,472,1,0,"Same_Path","Diamond","TRUE"
"91",155,2,2,"UnConscious",91,485,1,270,"Same_Path","Diamond","TRUE"
"92",156,2,2,"UnConscious",92,534,1,315,"Same_Path","Rectangle","FALSE"
"93",157,2,2,"UnConscious",93,491,1,225,"Different_Path","Diamond","FALSE"
"94",158,2,2,"UnConscious",94,512,1,45,"Same_Path","Rectangle","FALSE"
"95",159,2,2,"UnConscious",95,415,1,180,"Same_Path","Rectangle","TRUE"
"96",160,2,2,"UnConscious",96,456,1,270,"Same_Path","Diamond","TRUE"
"97",161,2,2,"UnConscious",97,453,1,135,"Same_Path","Rectangle","FALSE"
"98",162,2,2,"UnConscious",98,514,1,180,"Different_Path","Diamond","TRUE"
"99",163,2,2,"UnConscious",99,487,1,135,"Different_Path","Diamond","FALSE"
"100",164,2,2,"UnConscious",100,384,1,315,"Same_Path","Diamond","FALSE"
"101",165,2,2,"UnConscious",101,429,1,180,"Same_Path","Rectangle","TRUE"
"102",166,2,2,"UnConscious",102,522,1,270,"Same_Path","Rectangle","TRUE"
"103",167,2,2,"UnConscious",103,431,1,270,"Different_Path","Diamond","TRUE"
"104",168,2,2,"UnConscious",104,416,1,315,"Different_Path","Diamond","FALSE"
"105",169,2,2,"UnConscious",105,515,1,180,"Different_Path","Rectangle","TRUE"
"106",170,2,2,"UnConscious",106,426,1,315,"Same_Path","Diamond","FALSE"
"107",171,2,2,"UnConscious",107,503,1,270,"Same_Path","Rectangle","TRUE"
"108",172,2,2,"UnConscious",108,388,1,0,"Different_Path","Diamond","TRUE"
"109",173,2,2,"UnConscious",109,473,1,270,"Different_Path","Rectangle","TRUE"
"110",174,2,2,"UnConscious",110,444,1,270,"Same_Path","Diamond","TRUE"
"111",175,2,2,"UnConscious",111,409,1,225,"Same_Path","Rectangle","FALSE"
"112",176,2,2,"UnConscious",112,438,1,135,"Same_Path","Rectangle","FALSE"
"113",177,2,2,"UnConscious",113,399,1,90,"Same_Path","Rectangle","TRUE"
"114",178,2,2,"UnConscious",114,426,1,0,"Same_Path","Rectangle","TRUE"
"115",179,2,2,"UnConscious",115,491,1,45,"Same_Path","Diamond","FALSE"
"116",180,2,2,"UnConscious",116,498,1,0,"Same_Path","Diamond","TRUE"
"117",181,2,2,"UnConscious",117,563,1,315,"Different_Path","Diamond","FALSE"
"118",182,2,2,"UnConscious",118,420,1,180,"Different_Path","Rectangle","TRUE"
"119",183,2,2,"UnConscious",119,373,1,225,"Same_Path","Rectangle","FALSE"
"120",184,2,2,"UnConscious",120,448,1,90,"Same_Path","Rectangle","TRUE"
"121",185,2,2,"UnConscious",121,509,1,135,"Different_Path","Diamond","FALSE"
"122",186,2,2,"UnConscious",122,490,1,135,"Different_Path","Rectangle","FALSE"
"123",187,2,2,"UnConscious",123,541,1,270,"Same_Path","Rectangle","TRUE"
"124",188,2,2,"UnConscious",124,568,1,90,"Different_Path","Rectangle","TRUE"
"125",189,2,2,"UnConscious",125,465,1,315,"Same_Path","Rectangle","FALSE"
"126",190,2,2,"UnConscious",126,434,1,270,"Different_Path","Rectangle","TRUE"
"127",191,2,2,"UnConscious",127,461,1,90,"Different_Path","Rectangle","TRUE"
"128",192,2,2,"UnConscious",128,422,1,0,"Same_Path","Diamond","TRUE"
"129",321,3,2,"UnConscious",1,711,1,90,"Different_Path","Diamond","TRUE"
"130",322,3,2,"UnConscious",2,542,1,270,"Different_Path","Rectangle","TRUE"
"131",323,3,2,"UnConscious",3,439,1,270,"Different_Path","Rectangle","TRUE"
"132",324,3,2,"UnConscious",4,422,1,135,"Same_Path","Rectangle","FALSE"
"133",325,3,2,"UnConscious",5,533,1,135,"Same_Path","Diamond","FALSE"
"134",326,3,2,"UnConscious",6,376,1,0,"Different_Path","Rectangle","TRUE"
"135",327,3,2,"UnConscious",7,661,1,135,"Different_Path","Rectangle","FALSE"
"136",328,3,2,"UnConscious",8,510,1,135,"Same_Path","Diamond","FALSE"
"137",329,3,2,"UnConscious",9,481,1,315,"Different_Path","Rectangle","FALSE"
"138",330,3,2,"UnConscious",10,476,1,90,"Same_Path","Diamond","TRUE"
"139",331,3,2,"UnConscious",11,413,1,90,"Same_Path","Rectangle","TRUE"
"140",332,3,2,"UnConscious",12,582,1,315,"Same_Path","Rectangle","FALSE"
"141",333,3,2,"UnConscious",13,569,1,225,"Different_Path","Rectangle","FALSE"
"142",334,3,2,"UnConscious",14,692,1,180,"Different_Path","Diamond","TRUE"
"143",335,3,2,"UnConscious",15,811,1,45,"Same_Path","Rectangle","FALSE"
"144",336,3,2,"UnConscious",16,572,1,225,"Different_Path","Rectangle","FALSE"
"145",337,3,2,"UnConscious",17,551,1,0,"Different_Path","Rectangle","TRUE"
"146",338,3,2,"UnConscious",18,600,1,315,"Different_Path","Rectangle","FALSE"
"147",339,3,2,"UnConscious",19,601,1,180,"Different_Path","Rectangle","TRUE"
"148",340,3,2,"UnConscious",20,1032,1,270,"Same_Path","Diamond","TRUE"
"149",341,3,2,"UnConscious",21,579,1,180,"Same_Path","Rectangle","TRUE"
"150",342,3,2,"UnConscious",22,613,1,90,"Same_Path","Diamond","TRUE"
"151",343,3,2,"UnConscious",23,520,1,45,"Same_Path","Diamond","FALSE"
"152",344,3,2,"UnConscious",24,591,1,135,"Same_Path","Diamond","FALSE"
"153",345,3,2,"UnConscious",25,478,1,270,"Same_Path","Rectangle","TRUE"
"154",346,3,2,"UnConscious",26,543,1,0,"Same_Path","Diamond","TRUE"
"155",347,3,2,"UnConscious",27,416,1,180,"Different_Path","Rectangle","TRUE"
"157",349,3,2,"UnConscious",29,730,1,135,"Different_Path","Rectangle","FALSE"
"158",350,3,2,"UnConscious",30,443,1,180,"Different_Path","Diamond","TRUE"
"159",351,3,2,"UnConscious",31,712,1,45,"Same_Path","Rectangle","FALSE"
"160",352,3,2,"UnConscious",32,561,1,45,"Different_Path","Diamond","FALSE"
"161",353,3,2,"UnConscious",33,510,1,315,"Same_Path","Rectangle","FALSE"
"162",354,3,2,"UnConscious",34,449,1,135,"Same_Path","Rectangle","FALSE"
"163",355,3,2,"UnConscious",35,504,1,90,"Same_Path","Diamond","TRUE"
"164",356,3,2,"UnConscious",36,501,1,90,"Different_Path","Rectangle","TRUE"
"165",357,3,2,"UnConscious",37,548,1,0,"Different_Path","Diamond","TRUE"
"166",358,3,2,"UnConscious",38,657,1,270,"Same_Path","Rectangle","TRUE"
"167",359,3,2,"UnConscious",39,556,1,315,"Same_Path","Diamond","FALSE"
"168",360,3,2,"UnConscious",40,563,1,45,"Same_Path","Rectangle","FALSE"
"169",361,3,2,"UnConscious",41,446,1,0,"Different_Path","Rectangle","TRUE"
"170",362,3,2,"UnConscious",42,593,1,45,"Same_Path","Diamond","FALSE"
"171",363,3,2,"UnConscious",43,494,1,90,"Different_Path","Rectangle","TRUE"
"172",364,3,2,"UnConscious",44,679,1,135,"Different_Path","Rectangle","FALSE"
"173",365,3,2,"UnConscious",45,550,1,225,"Different_Path","Diamond","FALSE"
"174",366,3,2,"UnConscious",46,435,1,0,"Different_Path","Rectangle","TRUE"
"175",367,3,2,"UnConscious",47,508,1,225,"Different_Path","Diamond","FALSE"
"176",368,3,2,"UnConscious",48,477,1,180,"Different_Path","Rectangle","TRUE"
"177",369,3,2,"UnConscious",49,506,1,315,"Same_Path","Rectangle","FALSE"
"178",370,3,2,"UnConscious",50,803,1,270,"Same_Path","Diamond","TRUE"
"179",371,3,2,"UnConscious",51,800,1,270,"Same_Path","Diamond","TRUE"
"180",372,3,2,"UnConscious",52,826,1,270,"Different_Path","Diamond","TRUE"
"181",373,3,2,"UnConscious",53,673,1,0,"Different_Path","Diamond","TRUE"
"182",374,3,2,"UnConscious",54,476,1,0,"Same_Path","Diamond","TRUE"
"183",375,3,2,"UnConscious",55,515,1,225,"Different_Path","Diamond","FALSE"
"184",376,3,2,"UnConscious",56,474,1,45,"Different_Path","Rectangle","FALSE"
"185",377,3,2,"UnConscious",57,473,1,315,"Different_Path","Diamond","FALSE"
"186",378,3,2,"UnConscious",58,504,1,135,"Same_Path","Rectangle","FALSE"
"187",379,3,2,"UnConscious",59,473,1,225,"Different_Path","Diamond","FALSE"
"188",380,3,2,"UnConscious",60,710,1,180,"Same_Path","Diamond","TRUE"
"189",381,3,2,"UnConscious",61,561,1,0,"Same_Path","Rectangle","TRUE"
"190",382,3,2,"UnConscious",62,596,1,225,"Same_Path","Rectangle","FALSE"
"191",383,3,2,"UnConscious",63,581,1,90,"Same_Path","Rectangle","TRUE"
"192",384,3,2,"UnConscious",64,482,1,225,"Same_Path","Rectangle","FALSE"
"193",385,3,2,"UnConscious",65,905,1,0,"Different_Path","Diamond","TRUE"
"194",386,3,2,"UnConscious",66,532,1,225,"Different_Path","Rectangle","FALSE"
"195",387,3,2,"UnConscious",67,873,1,135,"Same_Path","Diamond","FALSE"
"196",388,3,2,"UnConscious",68,526,1,45,"Same_Path","Diamond","FALSE"
"197",389,3,2,"UnConscious",69,823,1,315,"Same_Path","Rectangle","FALSE"
"198",390,3,2,"UnConscious",70,894,1,225,"Different_Path","Diamond","FALSE"
"199",391,3,2,"UnConscious",71,546,1,180,"Different_Path","Diamond","TRUE"
"200",392,3,2,"UnConscious",72,625,1,90,"Different_Path","Rectangle","TRUE"
"201",393,3,2,"UnConscious",73,554,1,180,"Same_Path","Diamond","TRUE"
"202",394,3,2,"UnConscious",74,585,1,180,"Same_Path","Rectangle","TRUE"
"203",395,3,2,"UnConscious",75,552,1,0,"Same_Path","Rectangle","TRUE"
"205",397,3,2,"UnConscious",77,542,1,225,"Same_Path","Rectangle","FALSE"
"206",398,3,2,"UnConscious",78,463,1,270,"Same_Path","Diamond","TRUE"
"207",399,3,2,"UnConscious",79,494,1,0,"Different_Path","Rectangle","TRUE"
"208",400,3,2,"UnConscious",80,571,1,45,"Different_Path","Rectangle","FALSE"
"209",401,3,2,"UnConscious",81,526,1,315,"Different_Path","Diamond","FALSE"
"210",402,3,2,"UnConscious",82,437,1,45,"Different_Path","Rectangle","FALSE"
"211",403,3,2,"UnConscious",83,460,1,180,"Same_Path","Rectangle","TRUE"
"212",404,3,2,"UnConscious",84,687,1,90,"Different_Path","Diamond","TRUE"
"213",405,3,2,"UnConscious",85,466,1,270,"Same_Path","Rectangle","TRUE"
"214",406,3,2,"UnConscious",86,541,1,90,"Same_Path","Diamond","TRUE"
"215",407,3,2,"UnConscious",87,600,1,135,"Same_Path","Diamond","FALSE"
"216",408,3,2,"UnConscious",88,515,1,90,"Different_Path","Rectangle","TRUE"
"217",409,3,2,"UnConscious",89,536,1,45,"Different_Path","Rectangle","FALSE"
"218",410,3,2,"UnConscious",90,667,1,225,"Same_Path","Diamond","FALSE"
"219",411,3,2,"UnConscious",91,692,1,270,"Different_Path","Rectangle","TRUE"
"220",412,3,2,"UnConscious",92,587,1,135,"Same_Path","Rectangle","FALSE"
"221",413,3,2,"UnConscious",93,482,1,0,"Same_Path","Diamond","TRUE"
"222",414,3,2,"UnConscious",94,1069,1,180,"Same_Path","Rectangle","TRUE"
"223",415,3,2,"UnConscious",95,800,1,315,"Same_Path","Diamond","FALSE"
"224",416,3,2,"UnConscious",96,790,1,90,"Different_Path","Rectangle","TRUE"
"225",417,3,2,"UnConscious",97,719,1,45,"Same_Path","Diamond","FALSE"
"226",418,3,2,"UnConscious",98,546,1,315,"Different_Path","Rectangle","FALSE"
"227",419,3,2,"UnConscious",99,741,1,180,"Different_Path","Diamond","TRUE"
"228",420,3,2,"UnConscious",100,728,1,0,"Different_Path","Diamond","TRUE"
"229",421,3,2,"UnConscious",101,509,1,45,"Same_Path","Rectangle","FALSE"
"230",422,3,2,"UnConscious",102,588,1,270,"Same_Path","Diamond","TRUE"
"231",423,3,2,"UnConscious",103,573,1,45,"Different_Path","Diamond","FALSE"
"232",424,3,2,"UnConscious",104,460,1,270,"Same_Path","Rectangle","TRUE"
"233",425,3,2,"UnConscious",105,499,1,225,"Different_Path","Rectangle","FALSE"
"234",426,3,2,"UnConscious",106,414,1,180,"Same_Path","Rectangle","TRUE"
"235",427,3,2,"UnConscious",107,529,1,270,"Different_Path","Diamond","TRUE"
"236",428,3,2,"UnConscious",108,502,1,315,"Same_Path","Diamond","FALSE"
"237",429,3,2,"UnConscious",109,489,1,135,"Different_Path","Rectangle","FALSE"
"238",430,3,2,"UnConscious",110,532,1,315,"Different_Path","Rectangle","FALSE"
"239",431,3,2,"UnConscious",111,459,1,270,"Same_Path","Diamond","TRUE"
"240",432,3,2,"UnConscious",112,492,1,45,"Different_Path","Diamond","FALSE"
"241",433,3,2,"UnConscious",113,429,1,315,"Same_Path","Diamond","FALSE"
"242",434,3,2,"UnConscious",114,438,1,135,"Different_Path","Diamond","FALSE"
"243",435,3,2,"UnConscious",115,593,1,90,"Different_Path","Diamond","TRUE"
"245",437,3,2,"UnConscious",117,583,1,180,"Different_Path","Diamond","TRUE"
"246",438,3,2,"UnConscious",118,496,1,270,"Same_Path","Rectangle","TRUE"
"247",439,3,2,"UnConscious",119,437,1,0,"Different_Path","Diamond","TRUE"
"248",440,3,2,"UnConscious",120,812,1,135,"Different_Path","Diamond","FALSE"
"249",441,3,2,"UnConscious",121,653,1,225,"Same_Path","Diamond","FALSE"
"250",442,3,2,"UnConscious",122,535,1,90,"Same_Path","Rectangle","TRUE"
"251",443,3,2,"UnConscious",123,565,1,225,"Same_Path","Diamond","FALSE"
"252",444,3,2,"UnConscious",124,685,1,225,"Same_Path","Rectangle","FALSE"
"253",445,3,2,"UnConscious",125,666,1,315,"Same_Path","Diamond","FALSE"
"254",446,3,2,"UnConscious",126,847,1,315,"Different_Path","Diamond","FALSE"
"255",447,3,2,"UnConscious",127,590,1,90,"Same_Path","Diamond","TRUE"
"256",448,3,2,"UnConscious",128,499,1,45,"Different_Path","Diamond","FALSE"
"257",577,4,2,"UnConscious",1,837,1,90,"Same_Path","Rectangle","TRUE"
"258",578,4,2,"UnConscious",2,668,1,135,"Different_Path","Rectangle","FALSE"
"259",579,4,2,"UnConscious",3,617,1,0,"Different_Path","Rectangle","TRUE"
"260",580,4,2,"UnConscious",4,572,1,315,"Same_Path","Diamond","FALSE"
"261",581,4,2,"UnConscious",5,703,1,270,"Same_Path","Rectangle","TRUE"
"262",582,4,2,"UnConscious",6,624,1,90,"Same_Path","Rectangle","TRUE"
"263",583,4,2,"UnConscious",7,489,1,90,"Same_Path","Diamond","TRUE"
"264",584,4,2,"UnConscious",8,800,1,90,"Same_Path","Rectangle","TRUE"
"265",585,4,2,"UnConscious",9,735,1,90,"Different_Path","Diamond","TRUE"
"266",586,4,2,"UnConscious",10,570,1,135,"Different_Path","Rectangle","FALSE"
"267",587,4,2,"UnConscious",11,755,1,135,"Same_Path","Diamond","FALSE"
"268",588,4,2,"UnConscious",12,614,1,0,"Same_Path","Diamond","TRUE"
"269",589,4,2,"UnConscious",13,791,1,90,"Different_Path","Diamond","TRUE"
"270",590,4,2,"UnConscious",14,650,1,135,"Different_Path","Rectangle","FALSE"
"271",591,4,2,"UnConscious",15,891,1,135,"Different_Path","Diamond","FALSE"
"272",592,4,2,"UnConscious",16,1015,1,315,"Different_Path","Diamond","FALSE"
"273",593,4,2,"UnConscious",17,660,1,225,"Different_Path","Diamond","FALSE"
"274",594,4,2,"UnConscious",18,605,1,135,"Same_Path","Rectangle","FALSE"
"275",595,4,2,"UnConscious",19,836,1,45,"Different_Path","Diamond","FALSE"
"276",596,4,2,"UnConscious",20,717,1,270,"Same_Path","Rectangle","TRUE"
"277",597,4,2,"UnConscious",21,746,1,270,"Different_Path","Rectangle","TRUE"
"278",598,4,2,"UnConscious",22,577,1,90,"Same_Path","Rectangle","TRUE"
"279",599,4,2,"UnConscious",23,712,1,270,"Different_Path","Rectangle","TRUE"
"280",600,4,2,"UnConscious",24,571,1,315,"Same_Path","Rectangle","FALSE"
"281",601,4,2,"UnConscious",25,566,1,180,"Different_Path","Diamond","TRUE"
"282",602,4,2,"UnConscious",26,1052,1,270,"Different_Path","Diamond","TRUE"
"283",603,4,2,"UnConscious",27,537,1,225,"Same_Path","Diamond","FALSE"
"284",604,4,2,"UnConscious",28,886,1,315,"Different_Path","Diamond","FALSE"
"285",605,4,2,"UnConscious",29,615,1,225,"Same_Path","Rectangle","FALSE"
"286",606,4,2,"UnConscious",30,692,1,0,"Same_Path","Rectangle","TRUE"
"287",607,4,2,"UnConscious",31,655,1,180,"Different_Path","Rectangle","TRUE"
"288",608,4,2,"UnConscious",32,576,1,45,"Same_Path","Rectangle","FALSE"
"289",609,4,2,"UnConscious",33,905,1,90,"Same_Path","Diamond","TRUE"
"290",610,4,2,"UnConscious",34,634,1,225,"Different_Path","Diamond","FALSE"
"291",611,4,2,"UnConscious",35,780,1,315,"Same_Path","Rectangle","FALSE"
"292",612,4,2,"UnConscious",36,635,1,0,"Same_Path","Rectangle","TRUE"
"293",613,4,2,"UnConscious",37,721,1,180,"Same_Path","Diamond","TRUE"
"294",614,4,2,"UnConscious",38,829,1,270,"Same_Path","Diamond","TRUE"
"295",615,4,2,"UnConscious",39,570,1,0,"Same_Path","Diamond","TRUE"
"296",616,4,2,"UnConscious",40,503,1,180,"Different_Path","Rectangle","TRUE"
"297",617,4,2,"UnConscious",41,580,1,270,"Different_Path","Rectangle","TRUE"
"298",618,4,2,"UnConscious",42,489,1,180,"Different_Path","Diamond","TRUE"
"299",619,4,2,"UnConscious",43,948,1,45,"Same_Path","Rectangle","FALSE"
"300",620,4,2,"UnConscious",44,733,1,315,"Different_Path","Diamond","FALSE"
"301",621,4,2,"UnConscious",45,632,1,0,"Different_Path","Diamond","TRUE"
"302",622,4,2,"UnConscious",46,424,1,0,"Same_Path","Rectangle","TRUE"
"303",623,4,2,"UnConscious",47,886,1,0,"Same_Path","Diamond","TRUE"
"304",624,4,2,"UnConscious",48,562,1,225,"Different_Path","Diamond","FALSE"
"305",625,4,2,"UnConscious",49,551,1,315,"Same_Path","Rectangle","FALSE"
"306",626,4,2,"UnConscious",50,576,1,315,"Different_Path","Rectangle","FALSE"
"307",627,4,2,"UnConscious",51,591,1,45,"Same_Path","Rectangle","FALSE"
"308",628,4,2,"UnConscious",52,614,1,225,"Same_Path","Diamond","FALSE"
"309",629,4,2,"UnConscious",53,1235,1,180,"Same_Path","Rectangle","TRUE"
"310",630,4,2,"UnConscious",54,700,1,315,"Different_Path","Rectangle","FALSE"
"311",631,4,2,"UnConscious",55,631,1,90,"Different_Path","Diamond","TRUE"
"312",632,4,2,"UnConscious",56,654,1,225,"Different_Path","Rectangle","FALSE"
"313",633,4,2,"UnConscious",57,469,1,135,"Different_Path","Rectangle","FALSE"
"314",634,4,2,"UnConscious",58,562,1,0,"Different_Path","Rectangle","TRUE"
"315",635,4,2,"UnConscious",59,780,1,225,"Different_Path","Rectangle","FALSE"
"316",636,4,2,"UnConscious",60,636,1,135,"Same_Path","Diamond","FALSE"
"317",637,4,2,"UnConscious",61,812,1,0,"Different_Path","Rectangle","TRUE"
"318",638,4,2,"UnConscious",62,621,1,270,"Same_Path","Diamond","TRUE"
"319",639,4,2,"UnConscious",63,1076,1,315,"Different_Path","Diamond","FALSE"
"320",640,4,2,"UnConscious",64,785,1,45,"Same_Path","Diamond","FALSE"
"321",641,4,2,"UnConscious",65,654,1,270,"Different_Path","Diamond","TRUE"
"322",642,4,2,"UnConscious",66,541,1,180,"Different_Path","Diamond","TRUE"
"323",643,4,2,"UnConscious",67,530,1,270,"Same_Path","Rectangle","TRUE"
"324",644,4,2,"UnConscious",68,685,1,0,"Different_Path","Diamond","TRUE"
"325",645,4,2,"UnConscious",69,1222,1,135,"Different_Path","Diamond","FALSE"
"326",646,4,2,"UnConscious",70,430,1,225,"Same_Path","Rectangle","FALSE"
"327",647,4,2,"UnConscious",71,489,1,135,"Same_Path","Rectangle","FALSE"
"328",648,4,2,"UnConscious",72,660,1,135,"Different_Path","Rectangle","FALSE"
"329",649,4,2,"UnConscious",73,745,1,315,"Different_Path","Rectangle","FALSE"
"330",650,4,2,"UnConscious",74,520,1,270,"Different_Path","Rectangle","TRUE"
"331",651,4,2,"UnConscious",75,929,1,45,"Different_Path","Diamond","FALSE"
"332",652,4,2,"UnConscious",76,728,1,45,"Same_Path","Diamond","FALSE"
"334",654,4,2,"UnConscious",78,676,1,45,"Different_Path","Diamond","FALSE"
"335",655,4,2,"UnConscious",79,643,1,315,"Same_Path","Diamond","FALSE"
"336",656,4,2,"UnConscious",80,628,1,90,"Different_Path","Diamond","TRUE"
"337",657,4,2,"UnConscious",81,475,1,270,"Different_Path","Rectangle","TRUE"
"338",658,4,2,"UnConscious",82,654,1,135,"Same_Path","Diamond","FALSE"
"339",659,4,2,"UnConscious",83,628,1,90,"Different_Path","Rectangle","TRUE"
"340",660,4,2,"UnConscious",84,641,1,90,"Same_Path","Rectangle","TRUE"
"341",661,4,2,"UnConscious",85,612,1,0,"Same_Path","Diamond","TRUE"
"342",662,4,2,"UnConscious",86,593,1,0,"Different_Path","Rectangle","TRUE"
"343",663,4,2,"UnConscious",87,597,1,315,"Different_Path","Diamond","FALSE"
"344",664,4,2,"UnConscious",88,1769,1,225,"Same_Path","Diamond","FALSE"
"345",665,4,2,"UnConscious",89,468,1,225,"Same_Path","Diamond","FALSE"
"346",666,4,2,"UnConscious",90,487,1,135,"Different_Path","Rectangle","FALSE"
"347",667,4,2,"UnConscious",91,508,1,180,"Same_Path","Rectangle","TRUE"
"348",668,4,2,"UnConscious",92,465,1,0,"Same_Path","Diamond","TRUE"
"349",669,4,2,"UnConscious",93,728,1,45,"Same_Path","Rectangle","FALSE"
"350",670,4,2,"UnConscious",94,557,1,225,"Same_Path","Rectangle","FALSE"
"351",671,4,2,"UnConscious",95,656,1,45,"Same_Path","Diamond","FALSE"
"352",672,4,2,"UnConscious",96,627,1,90,"Same_Path","Diamond","TRUE"
"353",673,4,2,"UnConscious",97,669,1,45,"Different_Path","Diamond","FALSE"
"354",674,4,2,"UnConscious",98,474,1,135,"Same_Path","Diamond","FALSE"
"355",675,4,2,"UnConscious",99,511,1,180,"Different_Path","Rectangle","TRUE"
"357",677,4,2,"UnConscious",101,931,1,270,"Same_Path","Diamond","TRUE"
"358",678,4,2,"UnConscious",102,464,1,225,"Same_Path","Diamond","FALSE"
"359",679,4,2,"UnConscious",103,841,1,270,"Different_Path","Diamond","TRUE"
"360",680,4,2,"UnConscious",104,616,1,225,"Same_Path","Rectangle","FALSE"
"361",681,4,2,"UnConscious",105,1137,1,135,"Same_Path","Diamond","FALSE"
"362",682,4,2,"UnConscious",106,496,1,270,"Different_Path","Diamond","TRUE"
"363",683,4,2,"UnConscious",107,644,1,45,"Different_Path","Diamond","FALSE"
"364",684,4,2,"UnConscious",108,536,1,180,"Different_Path","Diamond","TRUE"
"365",685,4,2,"UnConscious",109,526,1,135,"Different_Path","Diamond","FALSE"
"366",686,4,2,"UnConscious",110,515,1,90,"Different_Path","Rectangle","TRUE"
"367",687,4,2,"UnConscious",111,484,1,315,"Same_Path","Diamond","FALSE"
"368",688,4,2,"UnConscious",112,599,1,45,"Same_Path","Rectangle","FALSE"
"369",689,4,2,"UnConscious",113,950,1,180,"Different_Path","Rectangle","TRUE"
"370",690,4,2,"UnConscious",114,635,1,0,"Different_Path","Diamond","TRUE"
"371",691,4,2,"UnConscious",115,574,1,225,"Different_Path","Rectangle","FALSE"
"372",692,4,2,"UnConscious",116,661,1,270,"Different_Path","Diamond","TRUE"
"373",693,4,2,"UnConscious",117,710,1,315,"Different_Path","Rectangle","FALSE"
"374",694,4,2,"UnConscious",118,585,1,225,"Same_Path","Rectangle","FALSE"
"375",695,4,2,"UnConscious",119,846,1,0,"Same_Path","Rectangle","TRUE"
"376",696,4,2,"UnConscious",120,423,1,180,"Same_Path","Rectangle","TRUE"
"377",697,4,2,"UnConscious",121,654,1,45,"Same_Path","Rectangle","FALSE"
"378",698,4,2,"UnConscious",122,545,1,180,"Same_Path","Diamond","TRUE"
"379",699,4,2,"UnConscious",123,904,1,180,"Different_Path","Rectangle","TRUE"
"380",700,4,2,"UnConscious",124,586,1,90,"Different_Path","Diamond","TRUE"
"381",701,4,2,"UnConscious",125,731,1,180,"Different_Path","Diamond","TRUE"
"382",702,4,2,"UnConscious",126,550,1,90,"Same_Path","Rectangle","TRUE"
"383",703,4,2,"UnConscious",127,521,1,315,"Different_Path","Rectangle","FALSE"
"384",704,4,2,"UnConscious",128,442,1,45,"Same_Path","Rectangle","FALSE"
"386",834,5,2,"UnConscious",2,557,1,180,"Different_Path","Diamond","TRUE"
"387",835,5,2,"UnConscious",3,670,1,315,"Same_Path","Diamond","FALSE"
"388",836,5,2,"UnConscious",4,653,1,45,"Different_Path","Rectangle","FALSE"
"389",837,5,2,"UnConscious",5,494,1,225,"Same_Path","Rectangle","FALSE"
"391",839,5,2,"UnConscious",7,654,1,135,"Same_Path","Rectangle","FALSE"
"392",840,5,2,"UnConscious",8,565,1,225,"Same_Path","Diamond","FALSE"
"393",841,5,2,"UnConscious",9,620,1,45,"Different_Path","Rectangle","FALSE"
"394",842,5,2,"UnConscious",10,457,1,180,"Same_Path","Rectangle","TRUE"
"395",843,5,2,"UnConscious",11,542,1,45,"Same_Path","Diamond","FALSE"
"396",844,5,2,"UnConscious",12,585,1,0,"Different_Path","Diamond","TRUE"
"397",845,5,2,"UnConscious",13,540,1,90,"Same_Path","Rectangle","TRUE"
"398",846,5,2,"UnConscious",14,645,1,45,"Different_Path","Diamond","FALSE"
"399",847,5,2,"UnConscious",15,506,1,90,"Same_Path","Diamond","TRUE"
"400",848,5,2,"UnConscious",16,480,1,135,"Same_Path","Rectangle","FALSE"
"401",849,5,2,"UnConscious",17,504,1,90,"Different_Path","Rectangle","TRUE"
"402",850,5,2,"UnConscious",18,572,1,225,"Different_Path","Diamond","FALSE"
"403",851,5,2,"UnConscious",19,463,1,0,"Different_Path","Rectangle","TRUE"
"404",852,5,2,"UnConscious",20,644,1,0,"Same_Path","Rectangle","TRUE"
"405",853,5,2,"UnConscious",21,493,1,225,"Same_Path","Rectangle","FALSE"
"406",854,5,2,"UnConscious",22,508,1,180,"Same_Path","Rectangle","TRUE"
"407",855,5,2,"UnConscious",23,605,1,225,"Different_Path","Diamond","FALSE"
"408",856,5,2,"UnConscious",24,538,1,225,"Different_Path","Rectangle","FALSE"
"409",857,5,2,"UnConscious",25,567,1,90,"Same_Path","Rectangle","TRUE"
"410",858,5,2,"UnConscious",26,550,1,315,"Same_Path","Rectangle","FALSE"
"411",859,5,2,"UnConscious",27,625,1,0,"Different_Path","Diamond","TRUE"
"412",860,5,2,"UnConscious",28,654,1,135,"Different_Path","Diamond","FALSE"
"413",861,5,2,"UnConscious",29,587,1,0,"Different_Path","Diamond","TRUE"
"414",862,5,2,"UnConscious",30,490,1,90,"Different_Path","Diamond","TRUE"
"415",863,5,2,"UnConscious",31,521,1,0,"Same_Path","Rectangle","TRUE"
"416",864,5,2,"UnConscious",32,514,1,315,"Different_Path","Rectangle","FALSE"
"417",865,5,2,"UnConscious",33,469,1,0,"Same_Path","Rectangle","TRUE"
"418",866,5,2,"UnConscious",34,634,1,135,"Different_Path","Diamond","FALSE"
"419",867,5,2,"UnConscious",35,517,1,45,"Different_Path","Diamond","FALSE"
"420",868,5,2,"UnConscious",36,492,1,315,"Same_Path","Rectangle","FALSE"
"421",869,5,2,"UnConscious",37,443,1,135,"Different_Path","Rectangle","FALSE"
"422",870,5,2,"UnConscious",38,470,1,315,"Different_Path","Rectangle","FALSE"
"423",871,5,2,"UnConscious",39,435,1,0,"Different_Path","Rectangle","TRUE"
"424",872,5,2,"UnConscious",40,422,1,180,"Same_Path","Rectangle","TRUE"
"425",873,5,2,"UnConscious",41,467,1,180,"Different_Path","Rectangle","TRUE"
"426",874,5,2,"UnConscious",42,506,1,0,"Same_Path","Diamond","TRUE"
"427",875,5,2,"UnConscious",43,479,1,315,"Same_Path","Rectangle","FALSE"
"428",876,5,2,"UnConscious",44,570,1,90,"Different_Path","Diamond","TRUE"
"429",877,5,2,"UnConscious",45,547,1,45,"Same_Path","Diamond","FALSE"
"430",878,5,2,"UnConscious",46,540,1,225,"Same_Path","Diamond","FALSE"
"431",879,5,2,"UnConscious",47,477,1,315,"Same_Path","Diamond","FALSE"
"432",880,5,2,"UnConscious",48,462,1,180,"Same_Path","Diamond","TRUE"
"433",881,5,2,"UnConscious",49,417,1,225,"Same_Path","Diamond","FALSE"
"434",882,5,2,"UnConscious",50,600,1,270,"Different_Path","Diamond","TRUE"
"435",883,5,2,"UnConscious",51,635,1,315,"Different_Path","Rectangle","FALSE"
"436",884,5,2,"UnConscious",52,532,1,270,"Different_Path","Rectangle","TRUE"
"437",885,5,2,"UnConscious",53,593,1,0,"Same_Path","Diamond","TRUE"
"438",886,5,2,"UnConscious",54,555,1,315,"Same_Path","Rectangle","FALSE"
"439",887,5,2,"UnConscious",55,560,1,270,"Same_Path","Diamond","TRUE"
"440",888,5,2,"UnConscious",56,511,1,225,"Same_Path","Rectangle","FALSE"
"441",889,5,2,"UnConscious",57,548,1,135,"Different_Path","Rectangle","FALSE"
"442",890,5,2,"UnConscious",58,519,1,180,"Same_Path","Rectangle","TRUE"
"443",891,5,2,"UnConscious",59,456,1,270,"Same_Path","Rectangle","TRUE"
"444",892,5,2,"UnConscious",60,589,1,315,"Different_Path","Diamond","FALSE"
"445",893,5,2,"UnConscious",61,520,1,180,"Same_Path","Diamond","TRUE"
"446",894,5,2,"UnConscious",62,519,1,180,"Different_Path","Rectangle","TRUE"
"447",895,5,2,"UnConscious",63,516,1,180,"Different_Path","Diamond","TRUE"
"448",896,5,2,"UnConscious",64,565,1,270,"Different_Path","Diamond","TRUE"
"449",897,5,2,"UnConscious",65,500,1,270,"Different_Path","Diamond","TRUE"
"450",898,5,2,"UnConscious",66,549,1,45,"Same_Path","Rectangle","FALSE"
"451",899,5,2,"UnConscious",67,800,1,270,"Same_Path","Diamond","TRUE"
"452",900,5,2,"UnConscious",68,497,1,180,"Different_Path","Diamond","TRUE"
"453",901,5,2,"UnConscious",69,562,1,0,"Same_Path","Diamond","TRUE"
"454",902,5,2,"UnConscious",70,571,1,135,"Different_Path","Rectangle","FALSE"
"455",903,5,2,"UnConscious",71,558,1,135,"Different_Path","Diamond","FALSE"
"456",904,5,2,"UnConscious",72,507,1,0,"Same_Path","Rectangle","TRUE"
"457",905,5,2,"UnConscious",73,644,1,225,"Different_Path","Diamond","FALSE"
"458",906,5,2,"UnConscious",74,491,1,45,"Same_Path","Rectangle","FALSE"
"459",907,5,2,"UnConscious",75,456,1,180,"Different_Path","Rectangle","TRUE"
"460",908,5,2,"UnConscious",76,629,1,270,"Different_Path","Diamond","TRUE"
"461",909,5,2,"UnConscious",77,592,1,270,"Different_Path","Rectangle","TRUE"
"462",910,5,2,"UnConscious",78,543,1,90,"Same_Path","Rectangle","TRUE"
"463",911,5,2,"UnConscious",79,419,1,315,"Same_Path","Rectangle","FALSE"
"464",912,5,2,"UnConscious",80,448,1,90,"Same_Path","Rectangle","TRUE"
"465",913,5,2,"UnConscious",81,422,1,180,"Same_Path","Rectangle","TRUE"
"466",914,5,2,"UnConscious",82,415,1,135,"Same_Path","Rectangle","FALSE"
"467",915,5,2,"UnConscious",83,624,1,270,"Different_Path","Diamond","TRUE"
"468",916,5,2,"UnConscious",84,449,1,315,"Same_Path","Diamond","FALSE"
"469",917,5,2,"UnConscious",85,570,1,90,"Different_Path","Diamond","TRUE"
"470",918,5,2,"UnConscious",86,541,1,270,"Same_Path","Rectangle","TRUE"
"471",919,5,2,"UnConscious",87,588,1,135,"Same_Path","Diamond","FALSE"
"472",920,5,2,"UnConscious",88,574,1,225,"Same_Path","Rectangle","FALSE"
"473",921,5,2,"UnConscious",89,531,1,45,"Same_Path","Diamond","FALSE"
"474",922,5,2,"UnConscious",90,510,1,45,"Different_Path","Rectangle","FALSE"
"475",923,5,2,"UnConscious",91,579,1,45,"Different_Path","Diamond","FALSE"
"476",924,5,2,"UnConscious",92,442,1,45,"Same_Path","Diamond","FALSE"
"477",925,5,2,"UnConscious",93,521,1,90,"Different_Path","Rectangle","TRUE"
"479",927,5,2,"UnConscious",95,433,1,135,"Same_Path","Rectangle","FALSE"
"480",928,5,2,"UnConscious",96,540,1,315,"Different_Path","Diamond","FALSE"
"481",929,5,2,"UnConscious",97,481,1,0,"Different_Path","Rectangle","TRUE"
"482",930,5,2,"UnConscious",98,562,1,90,"Same_Path","Diamond","TRUE"
"483",931,5,2,"UnConscious",99,451,1,45,"Different_Path","Diamond","FALSE"
"484",932,5,2,"UnConscious",100,612,1,90,"Different_Path","Rectangle","TRUE"
"485",933,5,2,"UnConscious",101,535,1,180,"Same_Path","Diamond","TRUE"
"486",934,5,2,"UnConscious",102,716,1,225,"Different_Path","Rectangle","FALSE"
"487",935,5,2,"UnConscious",103,565,1,225,"Different_Path","Rectangle","FALSE"
"488",936,5,2,"UnConscious",104,544,1,225,"Different_Path","Diamond","FALSE"
"489",937,5,2,"UnConscious",105,659,1,180,"Same_Path","Diamond","TRUE"
"490",938,5,2,"UnConscious",106,542,1,45,"Different_Path","Rectangle","FALSE"
"491",939,5,2,"UnConscious",107,549,1,90,"Different_Path","Rectangle","TRUE"
"492",940,5,2,"UnConscious",108,650,1,135,"Same_Path","Rectangle","FALSE"
"493",941,5,2,"UnConscious",109,589,1,315,"Same_Path","Diamond","FALSE"
"494",942,5,2,"UnConscious",110,518,1,90,"Different_Path","Diamond","TRUE"
"495",943,5,2,"UnConscious",111,565,1,135,"Same_Path","Diamond","FALSE"
"496",944,5,2,"UnConscious",112,510,1,315,"Same_Path","Diamond","FALSE"
"497",945,5,2,"UnConscious",113,539,1,270,"Different_Path","Diamond","TRUE"
"498",946,5,2,"UnConscious",114,646,1,45,"Same_Path","Rectangle","FALSE"
"499",947,5,2,"UnConscious",115,549,1,135,"Same_Path","Diamond","FALSE"
"500",948,5,2,"UnConscious",116,523,1,0,"Different_Path","Diamond","TRUE"
"501",949,5,2,"UnConscious",117,772,1,315,"Same_Path","Diamond","FALSE"
"502",950,5,2,"UnConscious",118,597,1,45,"Different_Path","Rectangle","FALSE"
"503",951,5,2,"UnConscious",119,944,1,0,"Different_Path","Rectangle","TRUE"
"504",952,5,2,"UnConscious",120,541,1,135,"Same_Path","Diamond","FALSE"
"505",953,5,2,"UnConscious",121,578,1,270,"Different_Path","Rectangle","TRUE"
"506",954,5,2,"UnConscious",122,499,1,270,"Different_Path","Rectangle","TRUE"
"507",955,5,2,"UnConscious",123,764,1,0,"Different_Path","Diamond","TRUE"
"508",956,5,2,"UnConscious",124,489,1,180,"Same_Path","Diamond","TRUE"
"509",957,5,2,"UnConscious",125,480,1,90,"Same_Path","Diamond","TRUE"
"510",958,5,2,"UnConscious",126,509,1,225,"Different_Path","Rectangle","FALSE"
"511",959,5,2,"UnConscious",127,538,1,90,"Different_Path","Diamond","TRUE"
"512",960,5,2,"UnConscious",128,595,1,270,"Same_Path","Rectangle","TRUE"
"513",1089,6,2,"UnConscious",1,561,1,315,"Same_Path","Rectangle","FALSE"
"514",1090,6,2,"UnConscious",2,462,1,270,"Same_Path","Rectangle","TRUE"
"515",1091,6,2,"UnConscious",3,573,1,45,"Different_Path","Diamond","FALSE"
"516",1092,6,2,"UnConscious",4,530,1,45,"Same_Path","Rectangle","FALSE"
"517",1093,6,2,"UnConscious",5,859,1,0,"Same_Path","Diamond","TRUE"
"518",1094,6,2,"UnConscious",6,444,1,180,"Same_Path","Rectangle","TRUE"
"519",1095,6,2,"UnConscious",7,531,1,180,"Different_Path","Diamond","TRUE"
"520",1096,6,2,"UnConscious",8,520,1,180,"Different_Path","Rectangle","TRUE"
"521",1097,6,2,"UnConscious",9,565,1,180,"Different_Path","Diamond","TRUE"
"522",1098,6,2,"UnConscious",10,506,1,0,"Different_Path","Diamond","TRUE"
"523",1099,6,2,"UnConscious",11,391,1,135,"Same_Path","Rectangle","FALSE"
"524",1100,6,2,"UnConscious",12,540,1,315,"Different_Path","Diamond","FALSE"
"525",1101,6,2,"UnConscious",13,563,1,90,"Different_Path","Rectangle","TRUE"
"526",1102,6,2,"UnConscious",14,669,1,0,"Different_Path","Rectangle","TRUE"
"527",1103,6,2,"UnConscious",15,456,1,180,"Same_Path","Rectangle","TRUE"
"528",1104,6,2,"UnConscious",16,476,1,0,"Different_Path","Rectangle","TRUE"
"529",1105,6,2,"UnConscious",17,506,1,0,"Different_Path","Diamond","TRUE"
"530",1106,6,2,"UnConscious",18,498,1,90,"Same_Path","Diamond","TRUE"
"531",1107,6,2,"UnConscious",19,710,1,90,"Different_Path","Diamond","TRUE"
"532",1108,6,2,"UnConscious",20,507,1,90,"Same_Path","Diamond","TRUE"
"533",1109,6,2,"UnConscious",21,518,1,0,"Different_Path","Rectangle","TRUE"
"534",1110,6,2,"UnConscious",22,601,1,315,"Same_Path","Diamond","FALSE"
"535",1111,6,2,"UnConscious",23,464,1,90,"Same_Path","Rectangle","TRUE"
"536",1112,6,2,"UnConscious",24,479,1,45,"Same_Path","Diamond","FALSE"
"538",1114,6,2,"UnConscious",26,480,1,135,"Different_Path","Rectangle","FALSE"
"539",1115,6,2,"UnConscious",27,553,1,225,"Different_Path","Rectangle","FALSE"
"540",1116,6,2,"UnConscious",28,429,1,225,"Same_Path","Rectangle","FALSE"
"541",1117,6,2,"UnConscious",29,530,1,135,"Different_Path","Diamond","FALSE"
"542",1118,6,2,"UnConscious",30,561,1,225,"Same_Path","Diamond","FALSE"
"543",1119,6,2,"UnConscious",31,510,1,180,"Different_Path","Diamond","TRUE"
"544",1120,6,2,"UnConscious",32,523,1,45,"Same_Path","Rectangle","FALSE"
"545",1121,6,2,"UnConscious",33,664,1,270,"Different_Path","Rectangle","TRUE"
"546",1122,6,2,"UnConscious",34,459,1,0,"Same_Path","Rectangle","TRUE"
"547",1123,6,2,"UnConscious",35,560,1,180,"Same_Path","Diamond","TRUE"
"548",1124,6,2,"UnConscious",36,468,1,45,"Different_Path","Rectangle","FALSE"
"549",1125,6,2,"UnConscious",37,603,1,135,"Different_Path","Diamond","FALSE"
"550",1126,6,2,"UnConscious",38,460,1,270,"Same_Path","Rectangle","TRUE"
"551",1127,6,2,"UnConscious",39,503,1,45,"Different_Path","Diamond","FALSE"
"552",1128,6,2,"UnConscious",40,532,1,270,"Same_Path","Diamond","TRUE"
"553",1129,6,2,"UnConscious",41,493,1,90,"Same_Path","Rectangle","TRUE"
"554",1130,6,2,"UnConscious",42,582,1,225,"Different_Path","Rectangle","FALSE"
"555",1131,6,2,"UnConscious",43,475,1,315,"Different_Path","Rectangle","FALSE"
"556",1132,6,2,"UnConscious",44,434,1,135,"Same_Path","Rectangle","FALSE"
"557",1133,6,2,"UnConscious",45,481,1,315,"Different_Path","Rectangle","FALSE"
"558",1134,6,2,"UnConscious",46,602,1,225,"Different_Path","Diamond","FALSE"
"559",1135,6,2,"UnConscious",47,377,1,90,"Same_Path","Rectangle","TRUE"
"560",1136,6,2,"UnConscious",48,511,1,90,"Different_Path","Diamond","TRUE"
"561",1137,6,2,"UnConscious",49,472,1,135,"Different_Path","Rectangle","FALSE"
"562",1138,6,2,"UnConscious",50,554,1,225,"Same_Path","Diamond","FALSE"
"563",1139,6,2,"UnConscious",51,557,1,315,"Different_Path","Rectangle","FALSE"
"564",1140,6,2,"UnConscious",52,530,1,0,"Different_Path","Rectangle","TRUE"
"565",1141,6,2,"UnConscious",53,591,1,225,"Different_Path","Diamond","FALSE"
"566",1142,6,2,"UnConscious",54,464,1,0,"Different_Path","Rectangle","TRUE"
"567",1143,6,2,"UnConscious",55,473,1,225,"Same_Path","Diamond","FALSE"
"568",1144,6,2,"UnConscious",56,502,1,225,"Different_Path","Rectangle","FALSE"
"569",1145,6,2,"UnConscious",57,518,1,90,"Same_Path","Diamond","TRUE"
"570",1146,6,2,"UnConscious",58,471,1,0,"Different_Path","Rectangle","TRUE"
"571",1147,6,2,"UnConscious",59,478,1,45,"Same_Path","Diamond","FALSE"
"572",1148,6,2,"UnConscious",60,437,1,180,"Same_Path","Rectangle","TRUE"
"573",1149,6,2,"UnConscious",61,470,1,45,"Different_Path","Rectangle","FALSE"
"574",1150,6,2,"UnConscious",62,437,1,45,"Same_Path","Diamond","FALSE"
"575",1151,6,2,"UnConscious",63,555,1,45,"Different_Path","Diamond","FALSE"
"576",1152,6,2,"UnConscious",64,542,1,90,"Different_Path","Diamond","TRUE"
"577",1153,6,2,"UnConscious",65,499,1,315,"Same_Path","Diamond","FALSE"
"578",1154,6,2,"UnConscious",66,506,1,135,"Different_Path","Rectangle","FALSE"
"579",1155,6,2,"UnConscious",67,515,1,180,"Same_Path","Diamond","TRUE"
"580",1156,6,2,"UnConscious",68,457,1,135,"Same_Path","Diamond","FALSE"
"581",1157,6,2,"UnConscious",69,447,1,90,"Different_Path","Diamond","TRUE"
"582",1158,6,2,"UnConscious",70,434,1,0,"Same_Path","Diamond","TRUE"
"583",1159,6,2,"UnConscious",71,419,1,45,"Different_Path","Rectangle","FALSE"
"584",1160,6,2,"UnConscious",72,440,1,225,"Different_Path","Diamond","FALSE"
"585",1161,6,2,"UnConscious",73,481,1,270,"Different_Path","Diamond","TRUE"
"586",1162,6,2,"UnConscious",74,406,1,315,"Same_Path","Rectangle","FALSE"
"587",1163,6,2,"UnConscious",75,433,1,225,"Different_Path","Diamond","FALSE"
"588",1164,6,2,"UnConscious",76,428,1,45,"Same_Path","Rectangle","FALSE"
"589",1165,6,2,"UnConscious",77,475,1,225,"Different_Path","Rectangle","FALSE"
"590",1166,6,2,"UnConscious",78,516,1,315,"Different_Path","Diamond","FALSE"
"591",1167,6,2,"UnConscious",79,557,1,180,"Different_Path","Diamond","TRUE"
"592",1168,6,2,"UnConscious",80,514,1,45,"Different_Path","Diamond","FALSE"
"593",1169,6,2,"UnConscious",81,403,1,135,"Same_Path","Diamond","FALSE"
"594",1170,6,2,"UnConscious",82,396,1,270,"Same_Path","Diamond","TRUE"
"595",1171,6,2,"UnConscious",83,515,1,315,"Different_Path","Rectangle","FALSE"
"596",1172,6,2,"UnConscious",84,461,1,270,"Different_Path","Diamond","TRUE"
"597",1173,6,2,"UnConscious",85,484,1,45,"Different_Path","Rectangle","FALSE"
"598",1174,6,2,"UnConscious",86,580,1,90,"Different_Path","Diamond","TRUE"
"599",1175,6,2,"UnConscious",87,464,1,180,"Same_Path","Diamond","TRUE"
"600",1176,6,2,"UnConscious",88,474,1,135,"Same_Path","Diamond","FALSE"
"601",1177,6,2,"UnConscious",89,478,1,225,"Same_Path","Rectangle","FALSE"
"602",1178,6,2,"UnConscious",90,365,1,0,"Same_Path","Diamond","TRUE"
"603",1179,6,2,"UnConscious",91,470,1,270,"Same_Path","Diamond","TRUE"
"604",1180,6,2,"UnConscious",92,526,1,315,"Same_Path","Rectangle","FALSE"
"605",1181,6,2,"UnConscious",93,432,1,225,"Different_Path","Diamond","FALSE"
"606",1182,6,2,"UnConscious",94,483,1,45,"Same_Path","Rectangle","FALSE"
"607",1183,6,2,"UnConscious",95,408,1,180,"Same_Path","Rectangle","TRUE"
"608",1184,6,2,"UnConscious",96,481,1,270,"Same_Path","Diamond","TRUE"
"609",1185,6,2,"UnConscious",97,449,1,135,"Same_Path","Rectangle","FALSE"
"610",1186,6,2,"UnConscious",98,449,1,180,"Different_Path","Diamond","TRUE"
"611",1187,6,2,"UnConscious",99,591,1,135,"Different_Path","Diamond","FALSE"
"612",1188,6,2,"UnConscious",100,479,1,315,"Same_Path","Diamond","FALSE"
"613",1189,6,2,"UnConscious",101,391,1,180,"Same_Path","Rectangle","TRUE"
"614",1190,6,2,"UnConscious",102,487,1,270,"Same_Path","Rectangle","TRUE"
"615",1191,6,2,"UnConscious",103,426,1,270,"Different_Path","Diamond","TRUE"
"616",1192,6,2,"UnConscious",104,525,1,315,"Different_Path","Diamond","FALSE"
"617",1193,6,2,"UnConscious",105,452,1,180,"Different_Path","Rectangle","TRUE"
"618",1194,6,2,"UnConscious",106,466,1,315,"Same_Path","Diamond","FALSE"
"619",1195,6,2,"UnConscious",107,398,1,270,"Same_Path","Rectangle","TRUE"
"620",1196,6,2,"UnConscious",108,502,1,0,"Different_Path","Diamond","TRUE"
"621",1197,6,2,"UnConscious",109,641,1,270,"Different_Path","Rectangle","TRUE"
"622",1198,6,2,"UnConscious",110,503,1,270,"Same_Path","Diamond","TRUE"
"623",1199,6,2,"UnConscious",111,522,1,225,"Same_Path","Rectangle","FALSE"
"624",1200,6,2,"UnConscious",112,593,1,135,"Same_Path","Rectangle","FALSE"
"625",1201,6,2,"UnConscious",113,428,1,90,"Same_Path","Rectangle","TRUE"
"626",1202,6,2,"UnConscious",114,431,1,0,"Same_Path","Rectangle","TRUE"
"627",1203,6,2,"UnConscious",115,460,1,45,"Same_Path","Diamond","FALSE"
"628",1204,6,2,"UnConscious",116,667,1,0,"Same_Path","Diamond","TRUE"
"629",1205,6,2,"UnConscious",117,612,1,315,"Different_Path","Diamond","FALSE"
"630",1206,6,2,"UnConscious",118,453,1,180,"Different_Path","Rectangle","TRUE"
"631",1207,6,2,"UnConscious",119,422,1,225,"Same_Path","Rectangle","FALSE"
"632",1208,6,2,"UnConscious",120,407,1,90,"Same_Path","Rectangle","TRUE"
"633",1209,6,2,"UnConscious",121,602,1,135,"Different_Path","Diamond","FALSE"
"634",1210,6,2,"UnConscious",122,535,1,135,"Different_Path","Rectangle","FALSE"
"635",1211,6,2,"UnConscious",123,380,1,270,"Same_Path","Rectangle","TRUE"
"636",1212,6,2,"UnConscious",124,387,1,90,"Different_Path","Rectangle","TRUE"
"637",1213,6,2,"UnConscious",125,558,1,315,"Same_Path","Rectangle","FALSE"
"638",1214,6,2,"UnConscious",126,581,1,270,"Different_Path","Rectangle","TRUE"
"639",1215,6,2,"UnConscious",127,954,1,90,"Different_Path","Rectangle","TRUE"
"640",1216,6,2,"UnConscious",128,621,1,0,"Same_Path","Diamond","TRUE"
"641",1345,7,2,"UnConscious",1,534,1,315,"Same_Path","Rectangle","FALSE"
"642",1346,7,2,"UnConscious",2,653,1,270,"Same_Path","Rectangle","TRUE"
"643",1347,7,2,"UnConscious",3,707,1,45,"Different_Path","Diamond","FALSE"
"644",1348,7,2,"UnConscious",4,765,1,45,"Same_Path","Rectangle","FALSE"
"645",1349,7,2,"UnConscious",5,553,1,0,"Same_Path","Diamond","TRUE"
"646",1350,7,2,"UnConscious",6,524,1,180,"Same_Path","Rectangle","TRUE"
"647",1351,7,2,"UnConscious",7,792,1,180,"Different_Path","Diamond","TRUE"
"648",1352,7,2,"UnConscious",8,484,1,180,"Different_Path","Rectangle","TRUE"
"649",1353,7,2,"UnConscious",9,840,1,180,"Different_Path","Diamond","TRUE"
"650",1354,7,2,"UnConscious",10,636,1,0,"Different_Path","Diamond","TRUE"
"651",1355,7,2,"UnConscious",11,632,1,135,"Same_Path","Rectangle","FALSE"
"652",1356,7,2,"UnConscious",12,706,1,315,"Different_Path","Diamond","FALSE"
"653",1357,7,2,"UnConscious",13,683,1,90,"Different_Path","Rectangle","TRUE"
"654",1358,7,2,"UnConscious",14,609,1,0,"Different_Path","Rectangle","TRUE"
"655",1359,7,2,"UnConscious",15,480,1,180,"Same_Path","Rectangle","TRUE"
"656",1360,7,2,"UnConscious",16,476,1,0,"Different_Path","Rectangle","TRUE"
"657",1361,7,2,"UnConscious",17,563,1,0,"Different_Path","Diamond","TRUE"
"658",1362,7,2,"UnConscious",18,1046,1,90,"Same_Path","Diamond","TRUE"
"659",1363,7,2,"UnConscious",19,619,1,90,"Different_Path","Diamond","TRUE"
"660",1364,7,2,"UnConscious",20,489,1,90,"Same_Path","Diamond","TRUE"
"661",1365,7,2,"UnConscious",21,576,1,0,"Different_Path","Rectangle","TRUE"
"662",1366,7,2,"UnConscious",22,734,1,315,"Same_Path","Diamond","FALSE"
"663",1367,7,2,"UnConscious",23,605,1,90,"Same_Path","Rectangle","TRUE"
"664",1368,7,2,"UnConscious",24,529,1,45,"Same_Path","Diamond","FALSE"
"665",1369,7,2,"UnConscious",25,656,1,135,"Same_Path","Diamond","FALSE"
"666",1370,7,2,"UnConscious",26,718,1,135,"Different_Path","Rectangle","FALSE"
"667",1371,7,2,"UnConscious",27,514,1,225,"Different_Path","Rectangle","FALSE"
"668",1372,7,2,"UnConscious",28,515,1,225,"Same_Path","Rectangle","FALSE"
"669",1373,7,2,"UnConscious",29,719,1,135,"Different_Path","Diamond","FALSE"
"670",1374,7,2,"UnConscious",30,585,1,225,"Same_Path","Diamond","FALSE"
"671",1375,7,2,"UnConscious",31,506,1,180,"Different_Path","Diamond","TRUE"
"672",1376,7,2,"UnConscious",32,659,1,45,"Same_Path","Rectangle","FALSE"
"673",1377,7,2,"UnConscious",33,602,1,270,"Different_Path","Rectangle","TRUE"
"674",1378,7,2,"UnConscious",34,509,1,0,"Same_Path","Rectangle","TRUE"
"675",1379,7,2,"UnConscious",35,871,1,180,"Same_Path","Diamond","TRUE"
"676",1380,7,2,"UnConscious",36,600,1,45,"Different_Path","Rectangle","FALSE"
"677",1381,7,2,"UnConscious",37,1084,1,135,"Different_Path","Diamond","FALSE"
"678",1382,7,2,"UnConscious",38,515,1,270,"Same_Path","Rectangle","TRUE"
"679",1383,7,2,"UnConscious",39,711,1,45,"Different_Path","Diamond","FALSE"
"680",1384,7,2,"UnConscious",40,776,1,270,"Same_Path","Diamond","TRUE"
"681",1385,7,2,"UnConscious",41,842,1,90,"Same_Path","Rectangle","TRUE"
"682",1386,7,2,"UnConscious",42,725,1,225,"Different_Path","Rectangle","FALSE"
"683",1387,7,2,"UnConscious",43,618,1,315,"Different_Path","Rectangle","FALSE"
"684",1388,7,2,"UnConscious",44,432,1,135,"Same_Path","Rectangle","FALSE"
"685",1389,7,2,"UnConscious",45,428,1,315,"Different_Path","Rectangle","FALSE"
"686",1390,7,2,"UnConscious",46,741,1,225,"Different_Path","Diamond","FALSE"
"687",1391,7,2,"UnConscious",47,790,1,90,"Same_Path","Rectangle","TRUE"
"688",1392,7,2,"UnConscious",48,600,1,90,"Different_Path","Diamond","TRUE"
"689",1393,7,2,"UnConscious",49,612,1,135,"Different_Path","Rectangle","FALSE"
"690",1394,7,2,"UnConscious",50,491,1,225,"Same_Path","Diamond","FALSE"
"691",1395,7,2,"UnConscious",51,641,1,315,"Different_Path","Rectangle","FALSE"
"692",1396,7,2,"UnConscious",52,485,1,0,"Different_Path","Rectangle","TRUE"
"693",1397,7,2,"UnConscious",53,825,1,225,"Different_Path","Diamond","FALSE"
"694",1398,7,2,"UnConscious",54,789,1,0,"Different_Path","Rectangle","TRUE"
"695",1399,7,2,"UnConscious",55,526,1,225,"Same_Path","Diamond","FALSE"
"696",1400,7,2,"UnConscious",56,482,1,225,"Different_Path","Rectangle","FALSE"
"697",1401,7,2,"UnConscious",57,558,1,90,"Same_Path","Diamond","TRUE"
"698",1402,7,2,"UnConscious",58,594,1,0,"Different_Path","Rectangle","TRUE"
"699",1403,7,2,"UnConscious",59,486,1,45,"Same_Path","Diamond","FALSE"
"700",1404,7,2,"UnConscious",60,1052,1,180,"Same_Path","Rectangle","TRUE"
"701",1405,7,2,"UnConscious",61,630,1,45,"Different_Path","Rectangle","FALSE"
"702",1406,7,2,"UnConscious",62,863,1,45,"Same_Path","Diamond","FALSE"
"703",1407,7,2,"UnConscious",63,614,1,45,"Different_Path","Diamond","FALSE"
"704",1408,7,2,"UnConscious",64,468,1,90,"Different_Path","Diamond","TRUE"
"705",1409,7,2,"UnConscious",65,478,1,315,"Same_Path","Diamond","FALSE"
"706",1410,7,2,"UnConscious",66,434,1,135,"Different_Path","Rectangle","FALSE"
"707",1411,7,2,"UnConscious",67,627,1,180,"Same_Path","Diamond","TRUE"
"708",1412,7,2,"UnConscious",68,604,1,135,"Same_Path","Diamond","FALSE"
"709",1413,7,2,"UnConscious",69,731,1,90,"Different_Path","Diamond","TRUE"
"710",1414,7,2,"UnConscious",70,521,1,0,"Same_Path","Diamond","TRUE"
"711",1415,7,2,"UnConscious",71,645,1,45,"Different_Path","Rectangle","FALSE"
"712",1416,7,2,"UnConscious",72,753,1,225,"Different_Path","Diamond","FALSE"
"713",1417,7,2,"UnConscious",73,973,1,270,"Different_Path","Diamond","TRUE"
"714",1418,7,2,"UnConscious",74,767,1,315,"Same_Path","Rectangle","FALSE"
"715",1419,7,2,"UnConscious",75,699,1,225,"Different_Path","Diamond","FALSE"
"716",1420,7,2,"UnConscious",76,865,1,45,"Same_Path","Rectangle","FALSE"
"717",1421,7,2,"UnConscious",77,1419,1,225,"Different_Path","Rectangle","FALSE"
"718",1422,7,2,"UnConscious",78,940,1,315,"Different_Path","Diamond","FALSE"
"719",1423,7,2,"UnConscious",79,758,1,180,"Different_Path","Diamond","TRUE"
"720",1424,7,2,"UnConscious",80,898,1,45,"Different_Path","Diamond","FALSE"
"721",1425,7,2,"UnConscious",81,800,1,135,"Same_Path","Diamond","FALSE"
"722",1426,7,2,"UnConscious",82,861,1,270,"Same_Path","Diamond","TRUE"
"723",1427,7,2,"UnConscious",83,928,1,315,"Different_Path","Rectangle","FALSE"
"724",1428,7,2,"UnConscious",84,615,1,270,"Different_Path","Diamond","TRUE"
"725",1429,7,2,"UnConscious",85,894,1,45,"Different_Path","Rectangle","FALSE"
"726",1430,7,2,"UnConscious",86,645,1,90,"Different_Path","Diamond","TRUE"
"727",1431,7,2,"UnConscious",87,755,1,180,"Same_Path","Diamond","TRUE"
"728",1432,7,2,"UnConscious",88,551,1,135,"Same_Path","Diamond","FALSE"
"729",1433,7,2,"UnConscious",89,515,1,225,"Same_Path","Rectangle","FALSE"
"730",1434,7,2,"UnConscious",90,535,1,0,"Same_Path","Diamond","TRUE"
"731",1435,7,2,"UnConscious",91,550,1,270,"Same_Path","Diamond","TRUE"
"732",1436,7,2,"UnConscious",92,999,1,315,"Same_Path","Rectangle","FALSE"
"733",1437,7,2,"UnConscious",93,867,1,225,"Different_Path","Diamond","FALSE"
"734",1438,7,2,"UnConscious",94,706,1,45,"Same_Path","Rectangle","FALSE"
"735",1439,7,2,"UnConscious",95,1211,1,180,"Same_Path","Rectangle","TRUE"
"736",1440,7,2,"UnConscious",96,535,1,270,"Same_Path","Diamond","TRUE"
"737",1441,7,2,"UnConscious",97,968,1,135,"Same_Path","Rectangle","FALSE"
"738",1442,7,2,"UnConscious",98,842,1,180,"Different_Path","Diamond","TRUE"
"739",1443,7,2,"UnConscious",99,622,1,135,"Different_Path","Diamond","FALSE"
"740",1444,7,2,"UnConscious",100,703,1,315,"Same_Path","Diamond","FALSE"
"741",1445,7,2,"UnConscious",101,640,1,180,"Same_Path","Rectangle","TRUE"
"742",1446,7,2,"UnConscious",102,1263,1,270,"Same_Path","Rectangle","TRUE"
"743",1447,7,2,"UnConscious",103,721,1,270,"Different_Path","Diamond","TRUE"
"744",1448,7,2,"UnConscious",104,597,1,315,"Different_Path","Diamond","FALSE"
"745",1449,7,2,"UnConscious",105,512,1,180,"Different_Path","Rectangle","TRUE"
"746",1450,7,2,"UnConscious",106,650,1,315,"Same_Path","Diamond","FALSE"
"747",1451,7,2,"UnConscious",107,865,1,270,"Same_Path","Rectangle","TRUE"
"748",1452,7,2,"UnConscious",108,594,1,0,"Different_Path","Diamond","TRUE"
"749",1453,7,2,"UnConscious",109,614,1,270,"Different_Path","Rectangle","TRUE"
"750",1454,7,2,"UnConscious",110,580,1,270,"Same_Path","Diamond","TRUE"
"751",1455,7,2,"UnConscious",111,614,1,225,"Same_Path","Rectangle","FALSE"
"752",1456,7,2,"UnConscious",112,996,1,135,"Same_Path","Rectangle","FALSE"
"753",1457,7,2,"UnConscious",113,736,1,90,"Same_Path","Rectangle","TRUE"
"754",1458,7,2,"UnConscious",114,423,1,0,"Same_Path","Rectangle","TRUE"
"755",1459,7,2,"UnConscious",115,464,1,45,"Same_Path","Diamond","FALSE"
"756",1460,7,2,"UnConscious",116,609,1,0,"Same_Path","Diamond","TRUE"
"757",1461,7,2,"UnConscious",117,704,1,315,"Different_Path","Diamond","FALSE"
"758",1462,7,2,"UnConscious",118,593,1,180,"Different_Path","Rectangle","TRUE"
"759",1463,7,2,"UnConscious",119,621,1,225,"Same_Path","Rectangle","FALSE"
"760",1464,7,2,"UnConscious",120,486,1,90,"Same_Path","Rectangle","TRUE"
"761",1465,7,2,"UnConscious",121,637,1,135,"Different_Path","Diamond","FALSE"
"762",1466,7,2,"UnConscious",122,585,1,135,"Different_Path","Rectangle","FALSE"
"763",1467,7,2,"UnConscious",123,650,1,270,"Same_Path","Rectangle","TRUE"
"764",1468,7,2,"UnConscious",124,649,1,90,"Different_Path","Rectangle","TRUE"
"765",1469,7,2,"UnConscious",125,448,1,315,"Same_Path","Rectangle","FALSE"
"766",1470,7,2,"UnConscious",126,438,1,270,"Different_Path","Rectangle","TRUE"
"767",1471,7,2,"UnConscious",127,442,1,90,"Different_Path","Rectangle","TRUE"
"768",1472,7,2,"UnConscious",128,598,1,0,"Same_Path","Diamond","TRUE"
"769",1601,8,2,"UnConscious",1,799,1,315,"Same_Path","Rectangle","FALSE"
"770",1602,8,2,"UnConscious",2,1017,1,270,"Same_Path","Rectangle","TRUE"
"771",1603,8,2,"UnConscious",3,903,1,45,"Different_Path","Diamond","FALSE"
"772",1604,8,2,"UnConscious",4,638,1,45,"Same_Path","Rectangle","FALSE"
"773",1605,8,2,"UnConscious",5,663,1,0,"Same_Path","Diamond","TRUE"
"774",1606,8,2,"UnConscious",6,534,1,180,"Same_Path","Rectangle","TRUE"
"775",1607,8,2,"UnConscious",7,650,1,180,"Different_Path","Diamond","TRUE"
"776",1608,8,2,"UnConscious",8,518,1,180,"Different_Path","Rectangle","TRUE"
"777",1609,8,2,"UnConscious",9,650,1,180,"Different_Path","Diamond","TRUE"
"778",1610,8,2,"UnConscious",10,942,1,0,"Different_Path","Diamond","TRUE"
"779",1611,8,2,"UnConscious",11,820,1,135,"Same_Path","Rectangle","FALSE"
"780",1612,8,2,"UnConscious",12,1017,1,315,"Different_Path","Diamond","FALSE"
"782",1614,8,2,"UnConscious",14,587,1,0,"Different_Path","Rectangle","TRUE"
"783",1615,8,2,"UnConscious",15,506,1,180,"Same_Path","Rectangle","TRUE"
"784",1616,8,2,"UnConscious",16,544,1,0,"Different_Path","Rectangle","TRUE"
"785",1617,8,2,"UnConscious",17,775,1,0,"Different_Path","Diamond","TRUE"
"786",1618,8,2,"UnConscious",18,787,1,90,"Same_Path","Diamond","TRUE"
"787",1619,8,2,"UnConscious",19,882,1,90,"Different_Path","Diamond","TRUE"
"788",1620,8,2,"UnConscious",20,907,1,90,"Same_Path","Diamond","TRUE"
"789",1621,8,2,"UnConscious",21,946,1,0,"Different_Path","Rectangle","TRUE"
"790",1622,8,2,"UnConscious",22,674,1,315,"Same_Path","Diamond","FALSE"
"791",1623,8,2,"UnConscious",23,855,1,90,"Same_Path","Rectangle","TRUE"
"792",1624,8,2,"UnConscious",24,691,1,45,"Same_Path","Diamond","FALSE"
"793",1625,8,2,"UnConscious",25,631,1,135,"Same_Path","Diamond","FALSE"
"794",1626,8,2,"UnConscious",26,990,1,135,"Different_Path","Rectangle","FALSE"
"795",1627,8,2,"UnConscious",27,964,1,225,"Different_Path","Rectangle","FALSE"
"796",1628,8,2,"UnConscious",28,657,1,225,"Same_Path","Rectangle","FALSE"
"797",1629,8,2,"UnConscious",29,749,1,135,"Different_Path","Diamond","FALSE"
"798",1630,8,2,"UnConscious",30,854,1,225,"Same_Path","Diamond","FALSE"
"799",1631,8,2,"UnConscious",31,858,1,180,"Different_Path","Diamond","TRUE"
"800",1632,8,2,"UnConscious",32,734,1,45,"Same_Path","Rectangle","FALSE"
"801",1633,8,2,"UnConscious",33,666,1,270,"Different_Path","Rectangle","TRUE"
"802",1634,8,2,"UnConscious",34,913,1,0,"Same_Path","Rectangle","TRUE"
"803",1635,8,2,"UnConscious",35,850,1,180,"Same_Path","Diamond","TRUE"
"804",1636,8,2,"UnConscious",36,582,1,45,"Different_Path","Rectangle","FALSE"
"805",1637,8,2,"UnConscious",37,1020,1,135,"Different_Path","Diamond","FALSE"
"806",1638,8,2,"UnConscious",38,587,1,270,"Same_Path","Rectangle","TRUE"
"807",1639,8,2,"UnConscious",39,706,1,45,"Different_Path","Diamond","FALSE"
"808",1640,8,2,"UnConscious",40,961,1,270,"Same_Path","Diamond","TRUE"
"809",1641,8,2,"UnConscious",41,666,1,90,"Same_Path","Rectangle","TRUE"
"810",1642,8,2,"UnConscious",42,665,1,225,"Different_Path","Rectangle","FALSE"
"811",1643,8,2,"UnConscious",43,935,1,315,"Different_Path","Rectangle","FALSE"
"812",1644,8,2,"UnConscious",44,843,1,135,"Same_Path","Rectangle","FALSE"
"813",1645,8,2,"UnConscious",45,612,1,315,"Different_Path","Rectangle","FALSE"
"814",1646,8,2,"UnConscious",46,793,1,225,"Different_Path","Diamond","FALSE"
"815",1647,8,2,"UnConscious",47,738,1,90,"Same_Path","Rectangle","TRUE"
"816",1648,8,2,"UnConscious",48,801,1,90,"Different_Path","Diamond","TRUE"
"817",1649,8,2,"UnConscious",49,530,1,135,"Different_Path","Rectangle","FALSE"
"818",1650,8,2,"UnConscious",50,846,1,225,"Same_Path","Diamond","FALSE"
"819",1651,8,2,"UnConscious",51,610,1,315,"Different_Path","Rectangle","FALSE"
"820",1652,8,2,"UnConscious",52,814,1,0,"Different_Path","Rectangle","TRUE"
"821",1653,8,2,"UnConscious",53,682,1,225,"Different_Path","Diamond","FALSE"
"822",1654,8,2,"UnConscious",54,555,1,0,"Different_Path","Rectangle","TRUE"
"823",1655,8,2,"UnConscious",55,789,1,225,"Same_Path","Diamond","FALSE"
"824",1656,8,2,"UnConscious",56,523,1,225,"Different_Path","Rectangle","FALSE"
"825",1657,8,2,"UnConscious",57,1084,1,90,"Same_Path","Diamond","TRUE"
"826",1658,8,2,"UnConscious",58,777,1,0,"Different_Path","Rectangle","TRUE"
"827",1659,8,2,"UnConscious",59,629,1,45,"Same_Path","Diamond","FALSE"
"828",1660,8,2,"UnConscious",60,587,1,180,"Same_Path","Rectangle","TRUE"
"829",1661,8,2,"UnConscious",61,818,1,45,"Different_Path","Rectangle","FALSE"
"830",1662,8,2,"UnConscious",62,750,1,45,"Same_Path","Diamond","FALSE"
"831",1663,8,2,"UnConscious",63,837,1,45,"Different_Path","Diamond","FALSE"
"832",1664,8,2,"UnConscious",64,822,1,90,"Different_Path","Diamond","TRUE"
"833",1665,8,2,"UnConscious",65,557,1,315,"Same_Path","Diamond","FALSE"
"834",1666,8,2,"UnConscious",66,662,1,135,"Different_Path","Rectangle","FALSE"
"835",1667,8,2,"UnConscious",67,660,1,180,"Same_Path","Diamond","TRUE"
"836",1668,8,2,"UnConscious",68,923,1,135,"Same_Path","Diamond","FALSE"
"837",1669,8,2,"UnConscious",69,692,1,90,"Different_Path","Diamond","TRUE"
"838",1670,8,2,"UnConscious",70,656,1,0,"Same_Path","Diamond","TRUE"
"839",1671,8,2,"UnConscious",71,660,1,45,"Different_Path","Rectangle","FALSE"
"840",1672,8,2,"UnConscious",72,715,1,225,"Different_Path","Diamond","FALSE"
"841",1673,8,2,"UnConscious",73,644,1,270,"Different_Path","Diamond","TRUE"
"842",1674,8,2,"UnConscious",74,592,1,315,"Same_Path","Rectangle","FALSE"
"843",1675,8,2,"UnConscious",75,641,1,225,"Different_Path","Diamond","FALSE"
"844",1676,8,2,"UnConscious",76,499,1,45,"Same_Path","Rectangle","FALSE"
"845",1677,8,2,"UnConscious",77,569,1,225,"Different_Path","Rectangle","FALSE"
"846",1678,8,2,"UnConscious",78,589,1,315,"Different_Path","Diamond","FALSE"
"847",1679,8,2,"UnConscious",79,868,1,180,"Different_Path","Diamond","TRUE"
"848",1680,8,2,"UnConscious",80,811,1,45,"Different_Path","Diamond","FALSE"
"849",1681,8,2,"UnConscious",81,599,1,135,"Same_Path","Diamond","FALSE"
"850",1682,8,2,"UnConscious",82,624,1,270,"Same_Path","Diamond","TRUE"
"851",1683,8,2,"UnConscious",83,638,1,315,"Different_Path","Rectangle","FALSE"
"852",1684,8,2,"UnConscious",84,784,1,270,"Different_Path","Diamond","TRUE"
"853",1685,8,2,"UnConscious",85,518,1,45,"Different_Path","Rectangle","FALSE"
"854",1686,8,2,"UnConscious",86,576,1,90,"Different_Path","Diamond","TRUE"
"855",1687,8,2,"UnConscious",87,580,1,180,"Same_Path","Diamond","TRUE"
"856",1688,8,2,"UnConscious",88,762,1,135,"Same_Path","Diamond","FALSE"
"857",1689,8,2,"UnConscious",89,697,1,225,"Same_Path","Rectangle","FALSE"
"858",1690,8,2,"UnConscious",90,552,1,0,"Same_Path","Diamond","TRUE"
"859",1691,8,2,"UnConscious",91,830,1,270,"Same_Path","Diamond","TRUE"
"860",1692,8,2,"UnConscious",92,508,1,315,"Same_Path","Rectangle","FALSE"
"861",1693,8,2,"UnConscious",93,931,1,225,"Different_Path","Diamond","FALSE"
"862",1694,8,2,"UnConscious",94,655,1,45,"Same_Path","Rectangle","FALSE"
"863",1695,8,2,"UnConscious",95,739,1,180,"Same_Path","Rectangle","TRUE"
"864",1696,8,2,"UnConscious",96,607,1,270,"Same_Path","Diamond","TRUE"
"865",1697,8,2,"UnConscious",97,681,1,135,"Same_Path","Rectangle","FALSE"
"866",1698,8,2,"UnConscious",98,674,1,180,"Different_Path","Diamond","TRUE"
"868",1700,8,2,"UnConscious",100,602,1,315,"Same_Path","Diamond","FALSE"
"869",1701,8,2,"UnConscious",101,539,1,180,"Same_Path","Rectangle","TRUE"
"870",1702,8,2,"UnConscious",102,559,1,270,"Same_Path","Rectangle","TRUE"
"871",1703,8,2,"UnConscious",103,688,1,270,"Different_Path","Diamond","TRUE"
"872",1704,8,2,"UnConscious",104,1132,1,315,"Different_Path","Diamond","FALSE"
"873",1705,8,2,"UnConscious",105,672,1,180,"Different_Path","Rectangle","TRUE"
"874",1706,8,2,"UnConscious",106,581,1,315,"Same_Path","Diamond","FALSE"
"875",1707,8,2,"UnConscious",107,598,1,270,"Same_Path","Rectangle","TRUE"
"876",1708,8,2,"UnConscious",108,796,1,0,"Different_Path","Diamond","TRUE"
"877",1709,8,2,"UnConscious",109,565,1,270,"Different_Path","Rectangle","TRUE"
"878",1710,8,2,"UnConscious",110,994,1,270,"Same_Path","Diamond","TRUE"
"879",1711,8,2,"UnConscious",111,864,1,225,"Same_Path","Rectangle","FALSE"
"880",1712,8,2,"UnConscious",112,647,1,135,"Same_Path","Rectangle","FALSE"
"881",1713,8,2,"UnConscious",113,960,1,90,"Same_Path","Rectangle","TRUE"
"882",1714,8,2,"UnConscious",114,639,1,0,"Same_Path","Rectangle","TRUE"
"883",1715,8,2,"UnConscious",115,561,1,45,"Same_Path","Diamond","FALSE"
"884",1716,8,2,"UnConscious",116,674,1,0,"Same_Path","Diamond","TRUE"
"885",1717,8,2,"UnConscious",117,683,1,315,"Different_Path","Diamond","FALSE"
"886",1718,8,2,"UnConscious",118,572,1,180,"Different_Path","Rectangle","TRUE"
"887",1719,8,2,"UnConscious",119,888,1,225,"Same_Path","Rectangle","FALSE"
"888",1720,8,2,"UnConscious",120,708,1,90,"Same_Path","Rectangle","TRUE"
"889",1721,8,2,"UnConscious",121,1219,1,135,"Different_Path","Diamond","FALSE"
"890",1722,8,2,"UnConscious",122,570,1,135,"Different_Path","Rectangle","FALSE"
"891",1723,8,2,"UnConscious",123,718,1,270,"Same_Path","Rectangle","TRUE"
"892",1724,8,2,"UnConscious",124,703,1,90,"Different_Path","Rectangle","TRUE"
"893",1725,8,2,"UnConscious",125,552,1,315,"Same_Path","Rectangle","FALSE"
"894",1726,8,2,"UnConscious",126,609,1,270,"Different_Path","Rectangle","TRUE"
"895",1727,8,2,"UnConscious",127,637,1,90,"Different_Path","Rectangle","TRUE"
"896",1728,8,2,"UnConscious",128,980,1,0,"Same_Path","Diamond","TRUE"
"897",1857,9,2,"UnConscious",1,668,1,315,"Same_Path","Rectangle","FALSE"
"898",1858,9,2,"UnConscious",2,637,1,270,"Same_Path","Rectangle","TRUE"
"899",1859,9,2,"UnConscious",3,969,1,45,"Different_Path","Diamond","FALSE"
"900",1860,9,2,"UnConscious",4,509,1,45,"Same_Path","Rectangle","FALSE"
"901",1861,9,2,"UnConscious",5,680,1,0,"Same_Path","Diamond","TRUE"
"902",1862,9,2,"UnConscious",6,583,1,180,"Same_Path","Rectangle","TRUE"
"903",1863,9,2,"UnConscious",7,732,1,180,"Different_Path","Diamond","TRUE"
"904",1864,9,2,"UnConscious",8,533,1,180,"Different_Path","Rectangle","TRUE"
"905",1865,9,2,"UnConscious",9,552,1,180,"Different_Path","Diamond","TRUE"
"906",1866,9,2,"UnConscious",10,825,1,0,"Different_Path","Diamond","TRUE"
"907",1867,9,2,"UnConscious",11,464,1,135,"Same_Path","Rectangle","FALSE"
"908",1868,9,2,"UnConscious",12,723,1,315,"Different_Path","Diamond","FALSE"
"909",1869,9,2,"UnConscious",13,482,1,90,"Different_Path","Rectangle","TRUE"
"910",1870,9,2,"UnConscious",14,633,1,0,"Different_Path","Rectangle","TRUE"
"911",1871,9,2,"UnConscious",15,482,1,180,"Same_Path","Rectangle","TRUE"
"912",1872,9,2,"UnConscious",16,499,1,0,"Different_Path","Rectangle","TRUE"
"913",1873,9,2,"UnConscious",17,598,1,0,"Different_Path","Diamond","TRUE"
"914",1874,9,2,"UnConscious",18,575,1,90,"Same_Path","Diamond","TRUE"
"915",1875,9,2,"UnConscious",19,694,1,90,"Different_Path","Diamond","TRUE"
"916",1876,9,2,"UnConscious",20,565,1,90,"Same_Path","Diamond","TRUE"
"917",1877,9,2,"UnConscious",21,548,1,0,"Different_Path","Rectangle","TRUE"
"918",1878,9,2,"UnConscious",22,605,1,315,"Same_Path","Diamond","FALSE"
"919",1879,9,2,"UnConscious",23,521,1,90,"Same_Path","Rectangle","TRUE"
"920",1880,9,2,"UnConscious",24,740,1,45,"Same_Path","Diamond","FALSE"
"921",1881,9,2,"UnConscious",25,663,1,135,"Same_Path","Diamond","FALSE"
"922",1882,9,2,"UnConscious",26,600,1,135,"Different_Path","Rectangle","FALSE"
"923",1883,9,2,"UnConscious",27,711,1,225,"Different_Path","Rectangle","FALSE"
"924",1884,9,2,"UnConscious",28,478,1,225,"Same_Path","Rectangle","FALSE"
"925",1885,9,2,"UnConscious",29,567,1,135,"Different_Path","Diamond","FALSE"
"926",1886,9,2,"UnConscious",30,506,1,225,"Same_Path","Diamond","FALSE"
"927",1887,9,2,"UnConscious",31,577,1,180,"Different_Path","Diamond","TRUE"
"928",1888,9,2,"UnConscious",32,572,1,45,"Same_Path","Rectangle","FALSE"
"929",1889,9,2,"UnConscious",33,457,1,270,"Different_Path","Rectangle","TRUE"
"930",1890,9,2,"UnConscious",34,520,1,0,"Same_Path","Rectangle","TRUE"
"931",1891,9,2,"UnConscious",35,561,1,180,"Same_Path","Diamond","TRUE"
"932",1892,9,2,"UnConscious",36,528,1,45,"Different_Path","Rectangle","FALSE"
"933",1893,9,2,"UnConscious",37,653,1,135,"Different_Path","Diamond","FALSE"
"934",1894,9,2,"UnConscious",38,484,1,270,"Same_Path","Rectangle","TRUE"
"935",1895,9,2,"UnConscious",39,975,1,45,"Different_Path","Diamond","FALSE"
"936",1896,9,2,"UnConscious",40,704,1,270,"Same_Path","Diamond","TRUE"
"937",1897,9,2,"UnConscious",41,497,1,90,"Same_Path","Rectangle","TRUE"
"938",1898,9,2,"UnConscious",42,598,1,225,"Different_Path","Rectangle","FALSE"
"939",1899,9,2,"UnConscious",43,449,1,315,"Different_Path","Rectangle","FALSE"
"940",1900,9,2,"UnConscious",44,466,1,135,"Same_Path","Rectangle","FALSE"
"941",1901,9,2,"UnConscious",45,506,1,315,"Different_Path","Rectangle","FALSE"
"942",1902,9,2,"UnConscious",46,582,1,225,"Different_Path","Diamond","FALSE"
"943",1903,9,2,"UnConscious",47,991,1,90,"Same_Path","Rectangle","TRUE"
"944",1904,9,2,"UnConscious",48,565,1,90,"Different_Path","Diamond","TRUE"
"945",1905,9,2,"UnConscious",49,1756,1,135,"Different_Path","Rectangle","FALSE"
"946",1906,9,2,"UnConscious",50,1111,1,225,"Same_Path","Diamond","FALSE"
"947",1907,9,2,"UnConscious",51,1384,1,315,"Different_Path","Rectangle","FALSE"
"948",1908,9,2,"UnConscious",52,710,1,0,"Different_Path","Rectangle","TRUE"
"949",1909,9,2,"UnConscious",53,1509,1,225,"Different_Path","Diamond","FALSE"
"950",1910,9,2,"UnConscious",54,616,1,0,"Different_Path","Rectangle","TRUE"
"951",1911,9,2,"UnConscious",55,849,1,225,"Same_Path","Diamond","FALSE"
"952",1912,9,2,"UnConscious",56,698,1,225,"Different_Path","Rectangle","FALSE"
"953",1913,9,2,"UnConscious",57,749,1,90,"Same_Path","Diamond","TRUE"
"954",1914,9,2,"UnConscious",58,733,1,0,"Different_Path","Rectangle","TRUE"
"955",1915,9,2,"UnConscious",59,529,1,45,"Same_Path","Diamond","FALSE"
"956",1916,9,2,"UnConscious",60,547,1,180,"Same_Path","Rectangle","TRUE"
"957",1917,9,2,"UnConscious",61,816,1,45,"Different_Path","Rectangle","FALSE"
"958",1918,9,2,"UnConscious",62,601,1,45,"Same_Path","Diamond","FALSE"
"959",1919,9,2,"UnConscious",63,752,1,45,"Different_Path","Diamond","FALSE"
"960",1920,9,2,"UnConscious",64,531,1,90,"Different_Path","Diamond","TRUE"
"961",1921,9,2,"UnConscious",65,678,1,315,"Same_Path","Diamond","FALSE"
"962",1922,9,2,"UnConscious",66,969,1,135,"Different_Path","Rectangle","FALSE"
"963",1923,9,2,"UnConscious",67,940,1,180,"Same_Path","Diamond","TRUE"
"964",1924,9,2,"UnConscious",68,685,1,135,"Same_Path","Diamond","FALSE"
"965",1925,9,2,"UnConscious",69,649,1,90,"Different_Path","Diamond","TRUE"
"966",1926,9,2,"UnConscious",70,642,1,0,"Same_Path","Diamond","TRUE"
"967",1927,9,2,"UnConscious",71,881,1,45,"Different_Path","Rectangle","FALSE"
"968",1928,9,2,"UnConscious",72,770,1,225,"Different_Path","Diamond","FALSE"
"969",1929,9,2,"UnConscious",73,619,1,270,"Different_Path","Diamond","TRUE"
"970",1930,9,2,"UnConscious",74,628,1,315,"Same_Path","Rectangle","FALSE"
"971",1931,9,2,"UnConscious",75,1037,1,225,"Different_Path","Diamond","FALSE"
"972",1932,9,2,"UnConscious",76,764,1,45,"Same_Path","Rectangle","FALSE"
"973",1933,9,2,"UnConscious",77,539,1,225,"Different_Path","Rectangle","FALSE"
"974",1934,9,2,"UnConscious",78,940,1,315,"Different_Path","Diamond","FALSE"
"975",1935,9,2,"UnConscious",79,676,1,180,"Different_Path","Diamond","TRUE"
"976",1936,9,2,"UnConscious",80,901,1,45,"Different_Path","Diamond","FALSE"
"977",1937,9,2,"UnConscious",81,2824,1,135,"Same_Path","Diamond","FALSE"
"978",1938,9,2,"UnConscious",82,668,1,270,"Same_Path","Diamond","TRUE"
"979",1939,9,2,"UnConscious",83,687,1,315,"Different_Path","Rectangle","FALSE"
"980",1940,9,2,"UnConscious",84,458,1,270,"Different_Path","Diamond","TRUE"
"981",1941,9,2,"UnConscious",85,505,1,45,"Different_Path","Rectangle","FALSE"
"982",1942,9,2,"UnConscious",86,592,1,90,"Different_Path","Diamond","TRUE"
"983",1943,9,2,"UnConscious",87,563,1,180,"Same_Path","Diamond","TRUE"
"984",1944,9,2,"UnConscious",88,580,1,135,"Same_Path","Diamond","FALSE"
"985",1945,9,2,"UnConscious",89,439,1,225,"Same_Path","Rectangle","FALSE"
"986",1946,9,2,"UnConscious",90,506,1,0,"Same_Path","Diamond","TRUE"
"987",1947,9,2,"UnConscious",91,711,1,270,"Same_Path","Diamond","TRUE"
"988",1948,9,2,"UnConscious",92,600,1,315,"Same_Path","Rectangle","FALSE"
"989",1949,9,2,"UnConscious",93,655,1,225,"Different_Path","Diamond","FALSE"
"990",1950,9,2,"UnConscious",94,450,1,45,"Same_Path","Rectangle","FALSE"
"991",1951,9,2,"UnConscious",95,459,1,180,"Same_Path","Rectangle","TRUE"
"992",1952,9,2,"UnConscious",96,466,1,270,"Same_Path","Diamond","TRUE"
"993",1953,9,2,"UnConscious",97,553,1,135,"Same_Path","Rectangle","FALSE"
"994",1954,9,2,"UnConscious",98,674,1,180,"Different_Path","Diamond","TRUE"
"995",1955,9,2,"UnConscious",99,825,1,135,"Different_Path","Diamond","FALSE"
"996",1956,9,2,"UnConscious",100,716,1,315,"Same_Path","Diamond","FALSE"
"997",1957,9,2,"UnConscious",101,669,1,180,"Same_Path","Rectangle","TRUE"
"998",1958,9,2,"UnConscious",102,794,1,270,"Same_Path","Rectangle","TRUE"
"999",1959,9,2,"UnConscious",103,1056,1,270,"Different_Path","Diamond","TRUE"
"1000",1960,9,2,"UnConscious",104,1449,1,315,"Different_Path","Diamond","FALSE"
"1001",1961,9,2,"UnConscious",105,452,1,180,"Different_Path","Rectangle","TRUE"
"1002",1962,9,2,"UnConscious",106,499,1,315,"Same_Path","Diamond","FALSE"
"1003",1963,9,2,"UnConscious",107,574,1,270,"Same_Path","Rectangle","TRUE"
"1004",1964,9,2,"UnConscious",108,1083,1,0,"Different_Path","Diamond","TRUE"
"1005",1965,9,2,"UnConscious",109,693,1,270,"Different_Path","Rectangle","TRUE"
"1006",1966,9,2,"UnConscious",110,761,1,270,"Same_Path","Diamond","TRUE"
"1007",1967,9,2,"UnConscious",111,493,1,225,"Same_Path","Rectangle","FALSE"
"1008",1968,9,2,"UnConscious",112,509,1,135,"Same_Path","Rectangle","FALSE"
"1009",1969,9,2,"UnConscious",113,571,1,90,"Same_Path","Rectangle","TRUE"
"1010",1970,9,2,"UnConscious",114,490,1,0,"Same_Path","Rectangle","TRUE"
"1011",1971,9,2,"UnConscious",115,595,1,45,"Same_Path","Diamond","FALSE"
"1012",1972,9,2,"UnConscious",116,542,1,0,"Same_Path","Diamond","TRUE"
"1013",1973,9,2,"UnConscious",117,749,1,315,"Different_Path","Diamond","FALSE"
"1014",1974,9,2,"UnConscious",118,518,1,180,"Different_Path","Rectangle","TRUE"
"1016",1976,9,2,"UnConscious",120,520,1,90,"Same_Path","Rectangle","TRUE"
"1017",1977,9,2,"UnConscious",121,841,1,135,"Different_Path","Diamond","FALSE"
"1018",1978,9,2,"UnConscious",122,560,1,135,"Different_Path","Rectangle","FALSE"
"1019",1979,9,2,"UnConscious",123,451,1,270,"Same_Path","Rectangle","TRUE"
"1020",1980,9,2,"UnConscious",124,454,1,90,"Different_Path","Rectangle","TRUE"
"1021",1981,9,2,"UnConscious",125,521,1,315,"Same_Path","Rectangle","FALSE"
"1022",1982,9,2,"UnConscious",126,462,1,270,"Different_Path","Rectangle","TRUE"
"1023",1983,9,2,"UnConscious",127,577,1,90,"Different_Path","Rectangle","TRUE"
"1024",1984,9,2,"UnConscious",128,642,1,0,"Same_Path","Diamond","TRUE"
"1025",2113,10,2,"UnConscious",1,534,1,315,"Same_Path","Rectangle","FALSE"
"1026",2114,10,2,"UnConscious",2,591,1,270,"Same_Path","Rectangle","TRUE"
"1027",2115,10,2,"UnConscious",3,798,1,45,"Different_Path","Diamond","FALSE"
"1028",2116,10,2,"UnConscious",4,499,1,45,"Same_Path","Rectangle","FALSE"
"1029",2117,10,2,"UnConscious",5,430,1,0,"Same_Path","Diamond","TRUE"
"1030",2118,10,2,"UnConscious",6,559,1,180,"Same_Path","Rectangle","TRUE"
"1031",2119,10,2,"UnConscious",7,526,1,180,"Different_Path","Diamond","TRUE"
"1032",2120,10,2,"UnConscious",8,803,1,180,"Different_Path","Rectangle","TRUE"
"1033",2121,10,2,"UnConscious",9,684,1,180,"Different_Path","Diamond","TRUE"
"1034",2122,10,2,"UnConscious",10,567,1,0,"Different_Path","Diamond","TRUE"
"1035",2123,10,2,"UnConscious",11,458,1,135,"Same_Path","Rectangle","FALSE"
"1036",2124,10,2,"UnConscious",12,1157,1,315,"Different_Path","Diamond","FALSE"
"1037",2125,10,2,"UnConscious",13,568,1,90,"Different_Path","Rectangle","TRUE"
"1038",2126,10,2,"UnConscious",14,1012,1,0,"Different_Path","Rectangle","TRUE"
"1039",2127,10,2,"UnConscious",15,485,1,180,"Same_Path","Rectangle","TRUE"
"1040",2128,10,2,"UnConscious",16,512,1,0,"Different_Path","Rectangle","TRUE"
"1041",2129,10,2,"UnConscious",17,457,1,0,"Different_Path","Diamond","TRUE"
"1042",2130,10,2,"UnConscious",18,1174,1,90,"Same_Path","Diamond","TRUE"
"1043",2131,10,2,"UnConscious",19,645,1,90,"Different_Path","Diamond","TRUE"
"1044",2132,10,2,"UnConscious",20,466,1,90,"Same_Path","Diamond","TRUE"
"1045",2133,10,2,"UnConscious",21,551,1,0,"Different_Path","Rectangle","TRUE"
"1046",2134,10,2,"UnConscious",22,410,1,315,"Same_Path","Diamond","FALSE"
"1047",2135,10,2,"UnConscious",23,477,1,90,"Same_Path","Rectangle","TRUE"
"1048",2136,10,2,"UnConscious",24,588,1,45,"Same_Path","Diamond","FALSE"
"1049",2137,10,2,"UnConscious",25,519,1,135,"Same_Path","Diamond","FALSE"
"1050",2138,10,2,"UnConscious",26,532,1,135,"Different_Path","Rectangle","FALSE"
"1051",2139,10,2,"UnConscious",27,543,1,225,"Different_Path","Rectangle","FALSE"
"1052",2140,10,2,"UnConscious",28,546,1,225,"Same_Path","Rectangle","FALSE"
"1053",2141,10,2,"UnConscious",29,449,1,135,"Different_Path","Diamond","FALSE"
"1054",2142,10,2,"UnConscious",30,444,1,225,"Same_Path","Diamond","FALSE"
"1055",2143,10,2,"UnConscious",31,437,1,180,"Different_Path","Diamond","TRUE"
"1056",2144,10,2,"UnConscious",32,650,1,45,"Same_Path","Rectangle","FALSE"
"1057",2145,10,2,"UnConscious",33,469,1,270,"Different_Path","Rectangle","TRUE"
"1058",2146,10,2,"UnConscious",34,620,1,0,"Same_Path","Rectangle","TRUE"
"1059",2147,10,2,"UnConscious",35,535,1,180,"Same_Path","Diamond","TRUE"
"1061",2149,10,2,"UnConscious",37,567,1,135,"Different_Path","Diamond","FALSE"
"1062",2150,10,2,"UnConscious",38,554,1,270,"Same_Path","Rectangle","TRUE"
"1063",2151,10,2,"UnConscious",39,647,1,45,"Different_Path","Diamond","FALSE"
"1064",2152,10,2,"UnConscious",40,850,1,270,"Same_Path","Diamond","TRUE"
"1065",2153,10,2,"UnConscious",41,550,1,90,"Same_Path","Rectangle","TRUE"
"1066",2154,10,2,"UnConscious",42,591,1,225,"Different_Path","Rectangle","FALSE"
"1067",2155,10,2,"UnConscious",43,606,1,315,"Different_Path","Rectangle","FALSE"
"1068",2156,10,2,"UnConscious",44,459,1,135,"Same_Path","Rectangle","FALSE"
"1069",2157,10,2,"UnConscious",45,822,1,315,"Different_Path","Rectangle","FALSE"
"1070",2158,10,2,"UnConscious",46,427,1,225,"Different_Path","Diamond","FALSE"
"1071",2159,10,2,"UnConscious",47,476,1,90,"Same_Path","Rectangle","TRUE"
"1072",2160,10,2,"UnConscious",48,583,1,90,"Different_Path","Diamond","TRUE"
"1073",2161,10,2,"UnConscious",49,478,1,135,"Different_Path","Rectangle","FALSE"
"1074",2162,10,2,"UnConscious",50,573,1,225,"Same_Path","Diamond","FALSE"
"1075",2163,10,2,"UnConscious",51,664,1,315,"Different_Path","Rectangle","FALSE"
"1076",2164,10,2,"UnConscious",52,507,1,0,"Different_Path","Rectangle","TRUE"
"1077",2165,10,2,"UnConscious",53,776,1,225,"Different_Path","Diamond","FALSE"
"1078",2166,10,2,"UnConscious",54,819,1,0,"Different_Path","Rectangle","TRUE"
"1079",2167,10,2,"UnConscious",55,544,1,225,"Same_Path","Diamond","FALSE"
"1080",2168,10,2,"UnConscious",56,544,1,225,"Different_Path","Rectangle","FALSE"
"1081",2169,10,2,"UnConscious",57,498,1,90,"Same_Path","Diamond","TRUE"
"1082",2170,10,2,"UnConscious",58,352,1,0,"Different_Path","Rectangle","TRUE"
"1083",2171,10,2,"UnConscious",59,680,1,45,"Same_Path","Diamond","FALSE"
"1084",2172,10,2,"UnConscious",60,392,1,180,"Same_Path","Rectangle","TRUE"
"1085",2173,10,2,"UnConscious",61,768,1,45,"Different_Path","Rectangle","FALSE"
"1086",2174,10,2,"UnConscious",62,1080,1,45,"Same_Path","Diamond","FALSE"
"1087",2175,10,2,"UnConscious",63,659,1,45,"Different_Path","Diamond","FALSE"
"1088",2176,10,2,"UnConscious",64,564,1,90,"Different_Path","Diamond","TRUE"
"1089",2177,10,2,"UnConscious",65,711,1,315,"Same_Path","Diamond","FALSE"
"1090",2178,10,2,"UnConscious",66,588,1,135,"Different_Path","Rectangle","FALSE"
"1091",2179,10,2,"UnConscious",67,555,1,180,"Same_Path","Diamond","TRUE"
"1092",2180,10,2,"UnConscious",68,492,1,135,"Same_Path","Diamond","FALSE"
"1093",2181,10,2,"UnConscious",69,635,1,90,"Different_Path","Diamond","TRUE"
"1094",2182,10,2,"UnConscious",70,488,1,0,"Same_Path","Diamond","TRUE"
"1095",2183,10,2,"UnConscious",71,719,1,45,"Different_Path","Rectangle","FALSE"
"1096",2184,10,2,"UnConscious",72,578,1,225,"Different_Path","Diamond","FALSE"
"1097",2185,10,2,"UnConscious",73,559,1,270,"Different_Path","Diamond","TRUE"
"1098",2186,10,2,"UnConscious",74,564,1,315,"Same_Path","Rectangle","FALSE"
"1099",2187,10,2,"UnConscious",75,546,1,225,"Different_Path","Diamond","FALSE"
"1100",2188,10,2,"UnConscious",76,1242,1,45,"Same_Path","Rectangle","FALSE"
"1101",2189,10,2,"UnConscious",77,672,1,225,"Different_Path","Rectangle","FALSE"
"1102",2190,10,2,"UnConscious",78,703,1,315,"Different_Path","Diamond","FALSE"
"1103",2191,10,2,"UnConscious",79,694,1,180,"Different_Path","Diamond","TRUE"
"1104",2192,10,2,"UnConscious",80,665,1,45,"Different_Path","Diamond","FALSE"
"1105",2193,10,2,"UnConscious",81,488,1,135,"Same_Path","Diamond","FALSE"
"1106",2194,10,2,"UnConscious",82,629,1,270,"Same_Path","Diamond","TRUE"
"1107",2195,10,2,"UnConscious",83,426,1,315,"Different_Path","Rectangle","FALSE"
"1108",2196,10,2,"UnConscious",84,417,1,270,"Different_Path","Diamond","TRUE"
"1109",2197,10,2,"UnConscious",85,536,1,45,"Different_Path","Rectangle","FALSE"
"1110",2198,10,2,"UnConscious",86,563,1,90,"Different_Path","Diamond","TRUE"
"1111",2199,10,2,"UnConscious",87,432,1,180,"Same_Path","Diamond","TRUE"
"1112",2200,10,2,"UnConscious",88,473,1,135,"Same_Path","Diamond","FALSE"
"1113",2201,10,2,"UnConscious",89,510,1,225,"Same_Path","Rectangle","FALSE"
"1114",2202,10,2,"UnConscious",90,559,1,0,"Same_Path","Diamond","TRUE"
"1115",2203,10,2,"UnConscious",91,458,1,270,"Same_Path","Diamond","TRUE"
"1116",2204,10,2,"UnConscious",92,605,1,315,"Same_Path","Rectangle","FALSE"
"1117",2205,10,2,"UnConscious",93,1252,1,225,"Different_Path","Diamond","FALSE"
"1118",2206,10,2,"UnConscious",94,608,1,45,"Same_Path","Rectangle","FALSE"
"1119",2207,10,2,"UnConscious",95,433,1,180,"Same_Path","Rectangle","TRUE"
"1120",2208,10,2,"UnConscious",96,922,1,270,"Same_Path","Diamond","TRUE"
"1121",2209,10,2,"UnConscious",97,413,1,135,"Same_Path","Rectangle","FALSE"
"1122",2210,10,2,"UnConscious",98,604,1,180,"Different_Path","Diamond","TRUE"
"1123",2211,10,2,"UnConscious",99,633,1,135,"Different_Path","Diamond","FALSE"
"1124",2212,10,2,"UnConscious",100,438,1,315,"Same_Path","Diamond","FALSE"
"1125",2213,10,2,"UnConscious",101,429,1,180,"Same_Path","Rectangle","TRUE"
"1126",2214,10,2,"UnConscious",102,464,1,270,"Same_Path","Rectangle","TRUE"
"1127",2215,10,2,"UnConscious",103,569,1,270,"Different_Path","Diamond","TRUE"
"1129",2217,10,2,"UnConscious",105,447,1,180,"Different_Path","Rectangle","TRUE"
"1130",2218,10,2,"UnConscious",106,506,1,315,"Same_Path","Diamond","FALSE"
"1131",2219,10,2,"UnConscious",107,545,1,270,"Same_Path","Rectangle","TRUE"
"1132",2220,10,2,"UnConscious",108,508,1,0,"Different_Path","Diamond","TRUE"
"1133",2221,10,2,"UnConscious",109,849,1,270,"Different_Path","Rectangle","TRUE"
"1134",2222,10,2,"UnConscious",110,618,1,270,"Same_Path","Diamond","TRUE"
"1135",2223,10,2,"UnConscious",111,421,1,225,"Same_Path","Rectangle","FALSE"
"1136",2224,10,2,"UnConscious",112,490,1,135,"Same_Path","Rectangle","FALSE"
"1137",2225,10,2,"UnConscious",113,517,1,90,"Same_Path","Rectangle","TRUE"
"1138",2226,10,2,"UnConscious",114,540,1,0,"Same_Path","Rectangle","TRUE"
"1139",2227,10,2,"UnConscious",115,509,1,45,"Same_Path","Diamond","FALSE"
"1140",2228,10,2,"UnConscious",116,596,1,0,"Same_Path","Diamond","TRUE"
"1141",2229,10,2,"UnConscious",117,567,1,315,"Different_Path","Diamond","FALSE"
"1142",2230,10,2,"UnConscious",118,716,1,180,"Different_Path","Rectangle","TRUE"
"1143",2231,10,2,"UnConscious",119,883,1,225,"Same_Path","Rectangle","FALSE"
"1144",2232,10,2,"UnConscious",120,571,1,90,"Same_Path","Rectangle","TRUE"
"1145",2233,10,2,"UnConscious",121,601,1,135,"Different_Path","Diamond","FALSE"
"1146",2234,10,2,"UnConscious",122,579,1,135,"Different_Path","Rectangle","FALSE"
"1147",2235,10,2,"UnConscious",123,970,1,270,"Same_Path","Rectangle","TRUE"
"1148",2236,10,2,"UnConscious",124,667,1,90,"Different_Path","Rectangle","TRUE"
"1149",2237,10,2,"UnConscious",125,636,1,315,"Same_Path","Rectangle","FALSE"
"1150",2238,10,2,"UnConscious",126,701,1,270,"Different_Path","Rectangle","TRUE"
"1151",2239,10,2,"UnConscious",127,1226,1,90,"Different_Path","Rectangle","TRUE"
"1152",2240,10,2,"UnConscious",128,1311,1,0,"Same_Path","Diamond","TRUE"
"1153",2369,11,2,"UnConscious",1,531,1,315,"Same_Path","Rectangle","FALSE"
"1154",2370,11,2,"UnConscious",2,522,1,270,"Same_Path","Rectangle","TRUE"
"1155",2371,11,2,"UnConscious",3,749,1,45,"Different_Path","Diamond","FALSE"
"1156",2372,11,2,"UnConscious",4,580,1,45,"Same_Path","Rectangle","FALSE"
"1157",2373,11,2,"UnConscious",5,833,1,0,"Same_Path","Diamond","TRUE"
"1158",2374,11,2,"UnConscious",6,444,1,180,"Same_Path","Rectangle","TRUE"
"1159",2375,11,2,"UnConscious",7,641,1,180,"Different_Path","Diamond","TRUE"
"1160",2376,11,2,"UnConscious",8,586,1,180,"Different_Path","Rectangle","TRUE"
"1161",2377,11,2,"UnConscious",9,539,1,180,"Different_Path","Diamond","TRUE"
"1162",2378,11,2,"UnConscious",10,574,1,0,"Different_Path","Diamond","TRUE"
"1163",2379,11,2,"UnConscious",11,423,1,135,"Same_Path","Rectangle","FALSE"
"1164",2380,11,2,"UnConscious",12,478,1,315,"Different_Path","Diamond","FALSE"
"1165",2381,11,2,"UnConscious",13,483,1,90,"Different_Path","Rectangle","TRUE"
"1166",2382,11,2,"UnConscious",14,414,1,0,"Different_Path","Rectangle","TRUE"
"1167",2383,11,2,"UnConscious",15,411,1,180,"Same_Path","Rectangle","TRUE"
"1168",2384,11,2,"UnConscious",16,528,1,0,"Different_Path","Rectangle","TRUE"
"1169",2385,11,2,"UnConscious",17,669,1,0,"Different_Path","Diamond","TRUE"
"1170",2386,11,2,"UnConscious",18,550,1,90,"Same_Path","Diamond","TRUE"
"1171",2387,11,2,"UnConscious",19,773,1,90,"Different_Path","Diamond","TRUE"
"1172",2388,11,2,"UnConscious",20,472,1,90,"Same_Path","Diamond","TRUE"
"1173",2389,11,2,"UnConscious",21,538,1,0,"Different_Path","Rectangle","TRUE"
"1174",2390,11,2,"UnConscious",22,544,1,315,"Same_Path","Diamond","FALSE"
"1175",2391,11,2,"UnConscious",23,490,1,90,"Same_Path","Rectangle","TRUE"
"1176",2392,11,2,"UnConscious",24,530,1,45,"Same_Path","Diamond","FALSE"
"1178",2394,11,2,"UnConscious",26,681,1,135,"Different_Path","Rectangle","FALSE"
"1179",2395,11,2,"UnConscious",27,706,1,225,"Different_Path","Rectangle","FALSE"
"1180",2396,11,2,"UnConscious",28,422,1,225,"Same_Path","Rectangle","FALSE"
"1181",2397,11,2,"UnConscious",29,592,1,135,"Different_Path","Diamond","FALSE"
"1182",2398,11,2,"UnConscious",30,540,1,225,"Same_Path","Diamond","FALSE"
"1183",2399,11,2,"UnConscious",31,512,1,180,"Different_Path","Diamond","TRUE"
"1184",2400,11,2,"UnConscious",32,857,1,45,"Same_Path","Rectangle","FALSE"
"1185",2401,11,2,"UnConscious",33,606,1,270,"Different_Path","Rectangle","TRUE"
"1186",2402,11,2,"UnConscious",34,505,1,0,"Same_Path","Rectangle","TRUE"
"1187",2403,11,2,"UnConscious",35,522,1,180,"Same_Path","Diamond","TRUE"
"1188",2404,11,2,"UnConscious",36,549,1,45,"Different_Path","Rectangle","FALSE"
"1189",2405,11,2,"UnConscious",37,522,1,135,"Different_Path","Diamond","FALSE"
"1190",2406,11,2,"UnConscious",38,485,1,270,"Same_Path","Rectangle","TRUE"
"1191",2407,11,2,"UnConscious",39,574,1,45,"Different_Path","Diamond","FALSE"
"1192",2408,11,2,"UnConscious",40,551,1,270,"Same_Path","Diamond","TRUE"
"1193",2409,11,2,"UnConscious",41,560,1,90,"Same_Path","Rectangle","TRUE"
"1194",2410,11,2,"UnConscious",42,417,1,225,"Different_Path","Rectangle","FALSE"
"1195",2411,11,2,"UnConscious",43,474,1,315,"Different_Path","Rectangle","FALSE"
"1196",2412,11,2,"UnConscious",44,459,1,135,"Same_Path","Rectangle","FALSE"
"1197",2413,11,2,"UnConscious",45,554,1,315,"Different_Path","Rectangle","FALSE"
"1198",2414,11,2,"UnConscious",46,757,1,225,"Different_Path","Diamond","FALSE"
"1199",2415,11,2,"UnConscious",47,536,1,90,"Same_Path","Rectangle","TRUE"
"1200",2416,11,2,"UnConscious",48,661,1,90,"Different_Path","Diamond","TRUE"
"1201",2417,11,2,"UnConscious",49,576,1,135,"Different_Path","Rectangle","FALSE"
"1202",2418,11,2,"UnConscious",50,539,1,225,"Same_Path","Diamond","FALSE"
"1203",2419,11,2,"UnConscious",51,520,1,315,"Different_Path","Rectangle","FALSE"
"1204",2420,11,2,"UnConscious",52,651,1,0,"Different_Path","Rectangle","TRUE"
"1205",2421,11,2,"UnConscious",53,600,1,225,"Different_Path","Diamond","FALSE"
"1206",2422,11,2,"UnConscious",54,610,1,0,"Different_Path","Rectangle","TRUE"
"1207",2423,11,2,"UnConscious",55,576,1,225,"Same_Path","Diamond","FALSE"
"1208",2424,11,2,"UnConscious",56,588,1,225,"Different_Path","Rectangle","FALSE"
"1209",2425,11,2,"UnConscious",57,598,1,90,"Same_Path","Diamond","TRUE"
"1210",2426,11,2,"UnConscious",58,625,1,0,"Different_Path","Rectangle","TRUE"
"1211",2427,11,2,"UnConscious",59,434,1,45,"Same_Path","Diamond","FALSE"
"1212",2428,11,2,"UnConscious",60,372,1,180,"Same_Path","Rectangle","TRUE"
"1213",2429,11,2,"UnConscious",61,687,1,45,"Different_Path","Rectangle","FALSE"
"1214",2430,11,2,"UnConscious",62,512,1,45,"Same_Path","Diamond","FALSE"
"1215",2431,11,2,"UnConscious",63,599,1,45,"Different_Path","Diamond","FALSE"
"1216",2432,11,2,"UnConscious",64,554,1,90,"Different_Path","Diamond","TRUE"
"1217",2433,11,2,"UnConscious",65,437,1,315,"Same_Path","Diamond","FALSE"
"1218",2434,11,2,"UnConscious",66,558,1,135,"Different_Path","Rectangle","FALSE"
"1219",2435,11,2,"UnConscious",67,605,1,180,"Same_Path","Diamond","TRUE"
"1220",2436,11,2,"UnConscious",68,572,1,135,"Same_Path","Diamond","FALSE"
"1221",2437,11,2,"UnConscious",69,891,1,90,"Different_Path","Diamond","TRUE"
"1222",2438,11,2,"UnConscious",70,534,1,0,"Same_Path","Diamond","TRUE"
"1223",2439,11,2,"UnConscious",71,501,1,45,"Different_Path","Rectangle","FALSE"
"1224",2440,11,2,"UnConscious",72,432,1,225,"Different_Path","Diamond","FALSE"
"1225",2441,11,2,"UnConscious",73,549,1,270,"Different_Path","Diamond","TRUE"
"1226",2442,11,2,"UnConscious",74,614,1,315,"Same_Path","Rectangle","FALSE"
"1227",2443,11,2,"UnConscious",75,549,1,225,"Different_Path","Diamond","FALSE"
"1228",2444,11,2,"UnConscious",76,494,1,45,"Same_Path","Rectangle","FALSE"
"1229",2445,11,2,"UnConscious",77,479,1,225,"Different_Path","Rectangle","FALSE"
"1230",2446,11,2,"UnConscious",78,628,1,315,"Different_Path","Diamond","FALSE"
"1231",2447,11,2,"UnConscious",79,407,1,180,"Different_Path","Diamond","TRUE"
"1232",2448,11,2,"UnConscious",80,658,1,45,"Different_Path","Diamond","FALSE"
"1233",2449,11,2,"UnConscious",81,914,1,135,"Same_Path","Diamond","FALSE"
"1234",2450,11,2,"UnConscious",82,563,1,270,"Same_Path","Diamond","TRUE"
"1235",2451,11,2,"UnConscious",83,626,1,315,"Different_Path","Rectangle","FALSE"
"1236",2452,11,2,"UnConscious",84,541,1,270,"Different_Path","Diamond","TRUE"
"1237",2453,11,2,"UnConscious",85,544,1,45,"Different_Path","Rectangle","FALSE"
"1238",2454,11,2,"UnConscious",86,419,1,90,"Different_Path","Diamond","TRUE"
"1239",2455,11,2,"UnConscious",87,566,1,180,"Same_Path","Diamond","TRUE"
"1240",2456,11,2,"UnConscious",88,519,1,135,"Same_Path","Diamond","FALSE"
"1241",2457,11,2,"UnConscious",89,440,1,225,"Same_Path","Rectangle","FALSE"
"1242",2458,11,2,"UnConscious",90,473,1,0,"Same_Path","Diamond","TRUE"
"1243",2459,11,2,"UnConscious",91,516,1,270,"Same_Path","Diamond","TRUE"
"1244",2460,11,2,"UnConscious",92,549,1,315,"Same_Path","Rectangle","FALSE"
"1245",2461,11,2,"UnConscious",93,546,1,225,"Different_Path","Diamond","FALSE"
"1246",2462,11,2,"UnConscious",94,517,1,45,"Same_Path","Rectangle","FALSE"
"1247",2463,11,2,"UnConscious",95,442,1,180,"Same_Path","Rectangle","TRUE"
"1248",2464,11,2,"UnConscious",96,501,1,270,"Same_Path","Diamond","TRUE"
"1249",2465,11,2,"UnConscious",97,540,1,135,"Same_Path","Rectangle","FALSE"
"1250",2466,11,2,"UnConscious",98,477,1,180,"Different_Path","Diamond","TRUE"
"1252",2468,11,2,"UnConscious",100,515,1,315,"Same_Path","Diamond","FALSE"
"1253",2469,11,2,"UnConscious",101,528,1,180,"Same_Path","Rectangle","TRUE"
"1254",2470,11,2,"UnConscious",102,603,1,270,"Same_Path","Rectangle","TRUE"
"1255",2471,11,2,"UnConscious",103,668,1,270,"Different_Path","Diamond","TRUE"
"1256",2472,11,2,"UnConscious",104,907,1,315,"Different_Path","Diamond","FALSE"
"1257",2473,11,2,"UnConscious",105,512,1,180,"Different_Path","Rectangle","TRUE"
"1258",2474,11,2,"UnConscious",106,507,1,315,"Same_Path","Diamond","FALSE"
"1259",2475,11,2,"UnConscious",107,592,1,270,"Same_Path","Rectangle","TRUE"
"1260",2476,11,2,"UnConscious",108,567,1,0,"Different_Path","Diamond","TRUE"
"1261",2477,11,2,"UnConscious",109,424,1,270,"Different_Path","Rectangle","TRUE"
"1262",2478,11,2,"UnConscious",110,655,1,270,"Same_Path","Diamond","TRUE"
"1263",2479,11,2,"UnConscious",111,490,1,225,"Same_Path","Rectangle","FALSE"
"1264",2480,11,2,"UnConscious",112,583,1,135,"Same_Path","Rectangle","FALSE"
"1265",2481,11,2,"UnConscious",113,443,1,90,"Same_Path","Rectangle","TRUE"
"1266",2482,11,2,"UnConscious",114,639,1,0,"Same_Path","Rectangle","TRUE"
"1267",2483,11,2,"UnConscious",115,537,1,45,"Same_Path","Diamond","FALSE"
"1268",2484,11,2,"UnConscious",116,457,1,0,"Same_Path","Diamond","TRUE"
"1269",2485,11,2,"UnConscious",117,546,1,315,"Different_Path","Diamond","FALSE"
"1270",2486,11,2,"UnConscious",118,533,1,180,"Different_Path","Rectangle","TRUE"
"1271",2487,11,2,"UnConscious",119,453,1,225,"Same_Path","Rectangle","FALSE"
"1272",2488,11,2,"UnConscious",120,597,1,90,"Same_Path","Rectangle","TRUE"
"1273",2489,11,2,"UnConscious",121,687,1,135,"Different_Path","Diamond","FALSE"
"1274",2490,11,2,"UnConscious",122,629,1,135,"Different_Path","Rectangle","FALSE"
"1275",2491,11,2,"UnConscious",123,579,1,270,"Same_Path","Rectangle","TRUE"
"1276",2492,11,2,"UnConscious",124,528,1,90,"Different_Path","Rectangle","TRUE"
"1277",2493,11,2,"UnConscious",125,577,1,315,"Same_Path","Rectangle","FALSE"
"1278",2494,11,2,"UnConscious",126,474,1,270,"Different_Path","Rectangle","TRUE"
"1279",2495,11,2,"UnConscious",127,757,1,90,"Different_Path","Rectangle","TRUE"
"1280",2496,11,2,"UnConscious",128,436,1,0,"Same_Path","Diamond","TRUE"
"1281",2625,12,2,"UnConscious",1,566,1,315,"Same_Path","Rectangle","FALSE"
"1282",2626,12,2,"UnConscious",2,476,1,270,"Same_Path","Rectangle","TRUE"
"1283",2627,12,2,"UnConscious",3,804,1,45,"Different_Path","Diamond","FALSE"
"1284",2628,12,2,"UnConscious",4,468,1,45,"Same_Path","Rectangle","FALSE"
"1285",2629,12,2,"UnConscious",5,526,1,0,"Same_Path","Diamond","TRUE"
"1286",2630,12,2,"UnConscious",6,676,1,180,"Same_Path","Rectangle","TRUE"
"1287",2631,12,2,"UnConscious",7,573,1,180,"Different_Path","Diamond","TRUE"
"1289",2633,12,2,"UnConscious",9,569,1,180,"Different_Path","Diamond","TRUE"
"1290",2634,12,2,"UnConscious",10,2014,1,0,"Different_Path","Diamond","TRUE"
"1291",2635,12,2,"UnConscious",11,557,1,135,"Same_Path","Rectangle","FALSE"
"1292",2636,12,2,"UnConscious",12,642,1,315,"Different_Path","Diamond","FALSE"
"1293",2637,12,2,"UnConscious",13,531,1,90,"Different_Path","Rectangle","TRUE"
"1294",2638,12,2,"UnConscious",14,730,1,0,"Different_Path","Rectangle","TRUE"
"1295",2639,12,2,"UnConscious",15,437,1,180,"Same_Path","Rectangle","TRUE"
"1296",2640,12,2,"UnConscious",16,439,1,0,"Different_Path","Rectangle","TRUE"
"1297",2641,12,2,"UnConscious",17,699,1,0,"Different_Path","Diamond","TRUE"
"1298",2642,12,2,"UnConscious",18,1226,1,90,"Same_Path","Diamond","TRUE"
"1299",2643,12,2,"UnConscious",19,1060,1,90,"Different_Path","Diamond","TRUE"
"1300",2644,12,2,"UnConscious",20,721,1,90,"Same_Path","Diamond","TRUE"
"1301",2645,12,2,"UnConscious",21,556,1,0,"Different_Path","Rectangle","TRUE"
"1302",2646,12,2,"UnConscious",22,601,1,315,"Same_Path","Diamond","FALSE"
"1303",2647,12,2,"UnConscious",23,836,1,90,"Same_Path","Rectangle","TRUE"
"1304",2648,12,2,"UnConscious",24,985,1,45,"Same_Path","Diamond","FALSE"
"1305",2649,12,2,"UnConscious",25,452,1,135,"Same_Path","Diamond","FALSE"
"1306",2650,12,2,"UnConscious",26,488,1,135,"Different_Path","Rectangle","FALSE"
"1307",2651,12,2,"UnConscious",27,697,1,225,"Different_Path","Rectangle","FALSE"
"1308",2652,12,2,"UnConscious",28,634,1,225,"Same_Path","Rectangle","FALSE"
"1309",2653,12,2,"UnConscious",29,671,1,135,"Different_Path","Diamond","FALSE"
"1310",2654,12,2,"UnConscious",30,730,1,225,"Same_Path","Diamond","FALSE"
"1311",2655,12,2,"UnConscious",31,538,1,180,"Different_Path","Diamond","TRUE"
"1312",2656,12,2,"UnConscious",32,614,1,45,"Same_Path","Rectangle","FALSE"
"1313",2657,12,2,"UnConscious",33,707,1,270,"Different_Path","Rectangle","TRUE"
"1314",2658,12,2,"UnConscious",34,578,1,0,"Same_Path","Rectangle","TRUE"
"1315",2659,12,2,"UnConscious",35,589,1,180,"Same_Path","Diamond","TRUE"
"1316",2660,12,2,"UnConscious",36,600,1,45,"Different_Path","Rectangle","FALSE"
"1317",2661,12,2,"UnConscious",37,557,1,135,"Different_Path","Diamond","FALSE"
"1318",2662,12,2,"UnConscious",38,492,1,270,"Same_Path","Rectangle","TRUE"
"1319",2663,12,2,"UnConscious",39,659,1,45,"Different_Path","Diamond","FALSE"
"1320",2664,12,2,"UnConscious",40,522,1,270,"Same_Path","Diamond","TRUE"
"1321",2665,12,2,"UnConscious",41,529,1,90,"Same_Path","Rectangle","TRUE"
"1322",2666,12,2,"UnConscious",42,650,1,225,"Different_Path","Rectangle","FALSE"
"1323",2667,12,2,"UnConscious",43,483,1,315,"Different_Path","Rectangle","FALSE"
"1324",2668,12,2,"UnConscious",44,389,1,135,"Same_Path","Rectangle","FALSE"
"1325",2669,12,2,"UnConscious",45,441,1,315,"Different_Path","Rectangle","FALSE"
"1326",2670,12,2,"UnConscious",46,621,1,225,"Different_Path","Diamond","FALSE"
"1327",2671,12,2,"UnConscious",47,472,1,90,"Same_Path","Rectangle","TRUE"
"1328",2672,12,2,"UnConscious",48,448,1,90,"Different_Path","Diamond","TRUE"
"1329",2673,12,2,"UnConscious",49,397,1,135,"Different_Path","Rectangle","FALSE"
"1330",2674,12,2,"UnConscious",50,490,1,225,"Same_Path","Diamond","FALSE"
"1331",2675,12,2,"UnConscious",51,550,1,315,"Different_Path","Rectangle","FALSE"
"1332",2676,12,2,"UnConscious",52,433,1,0,"Different_Path","Rectangle","TRUE"
"1333",2677,12,2,"UnConscious",53,520,1,225,"Different_Path","Diamond","FALSE"
"1334",2678,12,2,"UnConscious",54,577,1,0,"Different_Path","Rectangle","TRUE"
"1335",2679,12,2,"UnConscious",55,477,1,225,"Same_Path","Diamond","FALSE"
"1336",2680,12,2,"UnConscious",56,453,1,225,"Different_Path","Rectangle","FALSE"
"1337",2681,12,2,"UnConscious",57,519,1,90,"Same_Path","Diamond","TRUE"
"1338",2682,12,2,"UnConscious",58,733,1,0,"Different_Path","Rectangle","TRUE"
"1339",2683,12,2,"UnConscious",59,460,1,45,"Same_Path","Diamond","FALSE"
"1340",2684,12,2,"UnConscious",60,503,1,180,"Same_Path","Rectangle","TRUE"
"1341",2685,12,2,"UnConscious",61,484,1,45,"Different_Path","Rectangle","FALSE"
"1342",2686,12,2,"UnConscious",62,567,1,45,"Same_Path","Diamond","FALSE"
"1343",2687,12,2,"UnConscious",63,522,1,45,"Different_Path","Diamond","FALSE"
"1344",2688,12,2,"UnConscious",64,739,1,90,"Different_Path","Diamond","TRUE"
"1345",2689,12,2,"UnConscious",65,514,1,315,"Same_Path","Diamond","FALSE"
"1346",2690,12,2,"UnConscious",66,417,1,135,"Different_Path","Rectangle","FALSE"
"1347",2691,12,2,"UnConscious",67,432,1,180,"Same_Path","Diamond","TRUE"
"1348",2692,12,2,"UnConscious",68,641,1,135,"Same_Path","Diamond","FALSE"
"1349",2693,12,2,"UnConscious",69,514,1,90,"Different_Path","Diamond","TRUE"
"1350",2694,12,2,"UnConscious",70,489,1,0,"Same_Path","Diamond","TRUE"
"1351",2695,12,2,"UnConscious",71,470,1,45,"Different_Path","Rectangle","FALSE"
"1352",2696,12,2,"UnConscious",72,677,1,225,"Different_Path","Diamond","FALSE"
"1353",2697,12,2,"UnConscious",73,512,1,270,"Different_Path","Diamond","TRUE"
"1354",2698,12,2,"UnConscious",74,557,1,315,"Same_Path","Rectangle","FALSE"
"1355",2699,12,2,"UnConscious",75,458,1,225,"Different_Path","Diamond","FALSE"
"1356",2700,12,2,"UnConscious",76,565,1,45,"Same_Path","Rectangle","FALSE"
"1357",2701,12,2,"UnConscious",77,460,1,225,"Different_Path","Rectangle","FALSE"
"1358",2702,12,2,"UnConscious",78,587,1,315,"Different_Path","Diamond","FALSE"
