,start_exp_2.keys,start_exp_2.rt,start_exp_3.keys,start_exp_3.rt,intel_resp.keys,intel_resp.rt,textbox_word.text,key_resp.keys,key_resp.rt,valence_resp.keys,valence_resp.rt,trials.thisRepN,trials.thisTrialN,trials.thisN,trials.thisIndex,trials.ran,file,eng_name,heb_name,category,rms,intelligibility,syllables,category_key,frequency,log_freq,google_freq,log_google_freq,participant,age,gender,correct_guess
1,space,14.7252,space,9.3901,1,12.5471,"
",return,13.5631,4,3.4386,0,0,0,9,1,arnav.ogg,arnav,<U+05D0><U+05E8><U+05E0><U+05D1>,Animal,0.118283436,NA,2,a,404,2.606381365,NA,NA,310,35,<U+05D0><U+05D9><U+05E9><U+05D4>,FALSE
2,,NA,,NA,4,9.6853,"<U+05D0><U+05D5><U+05D2><U+05D3><U+05DF>
",return,8.2355,4,2.0704,0,1,1,113,1,ogdan.ogg,ogdan,<U+05D0><U+05D5><U+05D2><U+05D3><U+05DF>,Object,0.128981724,NA,2,l,220,2.342422681,NA,NA,310,35,<U+05D0><U+05D9><U+05E9><U+05D4>,TRUE
3,,NA,,NA,6,5.2907,"<U+05D7><U+05DC><U+05D5><U+05DF>
",return,2.3568,4,1.8093,0,2,2,55,1,khalon.ogg,khalon,<U+05D7><U+05DC><U+05D5><U+05DF>,Object,0.103929475,NA,2,l,1996,3.300160537,NA,NA,310,35,<U+05D0><U+05D9><U+05E9><U+05D4>,TRUE
4,,NA,,NA,6,4.6051,"<U+05E1><U+05E4><U+05DC>
",return,4.0752,4,1.8729,0,3,3,130,1,sefel.ogg,sefel,<U+05E1><U+05E4><U+05DC>,Object,0.068504706,NA,2,l,121,2.08278537,NA,NA,310,35,<U+05D0><U+05D9><U+05E9><U+05D4>,TRUE
5,,NA,,NA,6,5.7752,"<U+05DE><U+05E8><U+05DB><U+05DA>
",return,2.3297,5,3.7673,0,4,4,100,1,merakekh.ogg,merakekh,<U+05DE><U+05E8><U+05DB><U+05DA>,Object,0.084448174,NA,3,l,37,1.568201724,NA,NA,310,35,<U+05D0><U+05D9><U+05E9><U+05D4>,TRUE
6,,NA,,NA,7,2.6181,"<U+05D7><U+05EA><U+05D5><U+05DC>
",return,1.9343,5,4.32,0,5,5,61,1,khatul.ogg,khatul,<U+05D7><U+05EA><U+05D5><U+05DC>,Animal,0.10725911,NA,2,a,2320,3.365487985,NA,NA,310,35,<U+05D0><U+05D9><U+05E9><U+05D4>,TRUE
7,,NA,,NA,7,2.5053,"<U+05E8><U+05D5><U+05D1><U+05D4>
",return,1.8302,3,2.0546,0,6,6,125,1,rove.ogg,rove,<U+05E8><U+05D5><U+05D1><U+05D4>,Object,0.140838295,NA,2,l,2823,3.450710878,NA,NA,310,35,<U+05D0><U+05D9><U+05E9><U+05D4>,TRUE
8,,NA,,NA,6,7.317,"<U+05D7><U+05E8><U+05E7><U+05D9><U+05DD>
",return,2.5988,3,2.1675,0,7,7,57,1,kharakim.ogg,kharakim,<U+05D7><U+05E8><U+05E7><U+05D9><U+05DD>,Animal,0.112992086,NA,3,a,2428,3.385248682,NA,NA,310,35,<U+05D0><U+05D9><U+05E9><U+05D4>,TRUE
9,,NA,,NA,7,3.0873,"<U+05E6><U+05D9><U+05E4><U+05D5><U+05E8>
",return,2.7096,5,2.1036,0,8,8,165,1,tzipor.ogg,tzipor,<U+05E6><U+05D9><U+05E4><U+05D5><U+05E8>,Animal,0.107238561,NA,2,a,1741,3.240798771,NA,NA,310,35,<U+05D0><U+05D9><U+05E9><U+05D4>,TRUE
10,,NA,,NA,6,2.9158,"<U+05DE><U+05D7><U+05E9><U+05D1>
",return,6.9912,4,1.9978,0,9,9,87,1,makhshev.ogg,makhshev,<U+05DE><U+05D7><U+05E9><U+05D1>,Object,0.112244941,NA,2,l,7379,3.86799751,NA,NA,310,35,<U+05D0><U+05D9><U+05E9><U+05D4>,TRUE
11,,NA,,NA,7,1.2794,"<U+05D7><U+05D5><U+05DC><U+05E6><U+05D4>
",return,1.6936,4,2.2419,0,10,10,68,1,khultza.ogg,khultza,<U+05D7><U+05D5><U+05DC><U+05E6><U+05D4>,Object,0.121153131,NA,2,l,832,2.920123326,NA,NA,310,35,<U+05D0><U+05D9><U+05E9><U+05D4>,TRUE
12,,NA,,NA,7,2.2398,"<U+05EA><U+05D5><U+05DC><U+05E2><U+05EA>
",return,2.2302,3,2.1694,0,11,11,157,1,tolaat.ogg,tolaat,<U+05EA><U+05D5><U+05DC><U+05E2><U+05EA>,Animal,0.123411298,NA,3,a,495,2.694605199,NA,NA,310,35,<U+05D0><U+05D9><U+05E9><U+05D4>,TRUE
13,,NA,,NA,6,2.7009,"<U+05DC><U+05D5><U+05D5><U+05D9><U+05EA><U+05DF>
",return,2.9233,4,2.0709,0,12,12,79,1,livyatan.ogg,livyatan,<U+05DC><U+05D5><U+05D5><U+05D9><U+05EA><U+05DF>,Animal,0.086291529,NA,3,a,211,2.324282455,NA,NA,310,35,<U+05D0><U+05D9><U+05E9><U+05D4>,TRUE
14,,NA,,NA,7,1.5169,"<U+05E9><U+05E4><U+05DF>
",return,1.3446,5,1.0848,0,13,13,134,1,shafan.ogg,shafan,<U+05E9><U+05E4><U+05DF>,Animal,0.087025575,NA,2,a,184,2.264817823,NA,NA,310,35,<U+05D0><U+05D9><U+05E9><U+05D4>,TRUE
15,,NA,,NA,7,1.5998,"<U+05DE><U+05D9><U+05E7><U+05E1><U+05E8>
",return,1.9377,4,1.6206,0,14,14,103,1,mikser.ogg,mikser,<U+05DE><U+05D9><U+05E7><U+05E1><U+05E8>,Object,0.084246255,NA,2,l,39,1.591064607,NA,NA,310,35,<U+05D0><U+05D9><U+05E9><U+05D4>,TRUE
16,,NA,,NA,7,1.7667,"<U+05E4><U+05DC><U+05DE><U+05D9><U+05E0><U+05D2><U+05D5>
",return,2.2926,5,2.0028,0,15,15,32,1,flamingo.ogg,flamingo,<U+05E4><U+05DC><U+05DE><U+05D9><U+05E0><U+05D2><U+05D5>,Animal,0.109668776,NA,3,a,145,2.161368002,NA,NA,310,35,<U+05D0><U+05D9><U+05E9><U+05D4>,TRUE
17,,NA,,NA,7,2.0893,"<U+05D9><U+05D3><U+05D9><U+05EA>
",return,2.3694,4,0.59,0,16,16,168,1,yadit.ogg,yadit,<U+05D9><U+05D3><U+05D9><U+05EA>,Object,0.107020855,NA,2,l,544,2.7355989,NA,NA,310,35,<U+05D0><U+05D9><U+05E9><U+05D4>,TRUE
18,,NA,,NA,7,1.6447,"<U+05D2><U+05DC><U+05D2><U+05DC>
",return,2.3773,4,17.4189,0,17,17,34,1,galgal.ogg,galgal,<U+05D2><U+05DC><U+05D2><U+05DC>,Object,0.148542315,NA,2,l,1839,3.264581729,NA,NA,310,35,<U+05D0><U+05D9><U+05E9><U+05D4>,TRUE
19,,NA,,NA,7,2.003,"<U+05D7><U+05D6><U+05D9><U+05E8>
",return,1.8324,3,1.3588,0,18,18,62,1,khazir.ogg,khazir,<U+05D7><U+05D6><U+05D9><U+05E8>,Animal,0.058417033,NA,2,a,1601,3.204391332,NA,NA,310,35,<U+05D0><U+05D9><U+05E9><U+05D4>,TRUE
20,,NA,,NA,6,1.9061,"<U+05D0><U+05E8><U+05DE><U+05D3><U+05D9><U+05DC>
",return,1.614,4,1.5175,0,19,19,8,1,armedil.ogg,armedil,<U+05D0><U+05E8><U+05DE><U+05D3><U+05D9><U+05DC>,Animal,0.108348459,NA,3,a,153,2.184691431,NA,NA,310,35,<U+05D0><U+05D9><U+05E9><U+05D4>,TRUE
21,,NA,,NA,7,1.3229,"<U+05E9><U+05D5><U+05DE><U+05DF>
",return,1.2739,3,1.2868,0,20,20,142,1,shuman.ogg,shuman,<U+05E9><U+05D5><U+05DE><U+05DF>,Object,0.076844811,NA,2,l,1865,3.270678836,NA,NA,310,35,<U+05D0><U+05D9><U+05E9><U+05D4>,TRUE
22,,NA,,NA,2,14.3318,"<U+05E6><U+05E4><U+05E2>
",return,13.7412,3,0.9828,0,21,21,162,1,tzefa.ogg,tzefa,<U+05E6><U+05E4><U+05E2>,Animal,0.114869006,NA,2,a,225,2.352182518,NA,NA,310,35,<U+05D0><U+05D9><U+05E9><U+05D4>,TRUE
23,,NA,,NA,7,1.4166,"<U+05D7><U+05D2><U+05D1>
",return,1.1079,4,1.9178,0,22,22,53,1,khagav.ogg,khagav,<U+05D7><U+05D2><U+05D1>,Animal,0.112923481,NA,2,a,37,1.568201724,NA,NA,310,35,<U+05D0><U+05D9><U+05E9><U+05D4>,TRUE
24,,NA,,NA,6,1.7341,"<U+05E0><U+05E2><U+05DC><U+05D9><U+05D9><U+05DD>
",return,1.5247,4,1.2601,0,23,23,109,1,naalaim.ogg,naalaim,<U+05E0><U+05E2><U+05DC><U+05D9><U+05D9><U+05DD>,Object,0.115955301,NA,2,l,1213,3.083860801,NA,NA,310,35,<U+05D0><U+05D9><U+05E9><U+05D4>,TRUE
25,,NA,,NA,7,1.3083,"<U+05DB><U+05E8><U+05D9><U+05E9>
",return,1.4431,3,0.4548,0,24,24,44,1,karish.ogg,karish,<U+05DB><U+05E8><U+05D9><U+05E9>,Animal,0.087359764,NA,2,a,811,2.909020854,NA,NA,310,35,<U+05D0><U+05D9><U+05E9><U+05D4>,TRUE
26,,NA,,NA,7,1.1673,"<U+05EA><U+05DE><U+05E0><U+05D5><U+05DF>
",return,1.2871,4,1.4652,0,25,25,150,1,tamnun.ogg,tamnun,<U+05EA><U+05DE><U+05E0><U+05D5><U+05DF>,Animal,0.109244198,NA,2,a,186,2.269512944,NA,NA,310,35,<U+05D0><U+05D9><U+05E9><U+05D4>,TRUE
27,,NA,,NA,7,1.2536,"<U+05D7><U+05D2><U+05D5><U+05E8><U+05D4>
",return,1.05,4,2.2206,0,26,26,54,1,khagora.ogg,khagora,<U+05D7><U+05D2><U+05D5><U+05E8><U+05D4>,Object,0.091309622,NA,3,l,411,2.613841822,NA,NA,310,35,<U+05D0><U+05D9><U+05E9><U+05D4>,TRUE
28,,NA,,NA,7,1.2579,"<U+05E9><U+05E2><U+05E8>
",return,0.9756,4,1.4177,0,27,27,132,1,shaar.ogg,shaar,<U+05E9><U+05E2><U+05E8>,Object,0.120827317,NA,2,l,18280,4.261976191,NA,NA,310,35,<U+05D0><U+05D9><U+05E9><U+05D4>,TRUE
29,,NA,,NA,6,1.3729,"<U+05D6><U+05D9><U+05E7><U+05D9><U+05EA>
",return,2.0438,4,0.9046,0,28,28,179,1,zikit.ogg,zikit,<U+05D6><U+05D9><U+05E7><U+05D9><U+05EA>,Animal,0.050165605,NA,2,a,196,2.292256071,NA,NA,310,35,<U+05D0><U+05D9><U+05E9><U+05D4>,TRUE
30,,NA,,NA,7,1.1711,"<U+05D7><U+05D1><U+05DC>
",return,0.7444,4,1.1669,0,29,29,63,1,khevel.ogg,khevel,<U+05D7><U+05D1><U+05DC>,Object,0.089048877,NA,2,l,8454,3.927062243,NA,NA,310,35,<U+05D0><U+05D9><U+05E9><U+05D4>,TRUE
31,,NA,,NA,7,0.9539,"<U+05EA><U+05E0><U+05D9><U+05DF>
",return,1.3078,4,1.2814,0,30,30,151,1,tanin.ogg,tanin,<U+05EA><U+05E0><U+05D9><U+05DF>,Animal,0.11310944,NA,2,a,1005,3.002166062,NA,NA,310,35,<U+05D0><U+05D9><U+05E9><U+05D4>,TRUE
32,,NA,,NA,6,1.7017,"<U+05EA><U+05D9><U+05E9>
",return,1.1158,4,1.6533,0,31,31,152,1,tayish.ogg,tayish,<U+05EA><U+05D9><U+05E9>,Animal,0.128700748,NA,2,a,103,2.012837225,NA,NA,310,35,<U+05D0><U+05D9><U+05E9><U+05D4>,TRUE
33,,NA,,NA,6,1.7385,"<U+05D0><U+05E4><U+05E8><U+05D5><U+05D7>
",return,1.1941,4,1.1237,0,32,32,30,1,efroakh.ogg,efroakh,<U+05D0><U+05E4><U+05E8><U+05D5><U+05D7>,Animal,0.116828218,NA,3,a,54,1.73239376,NA,NA,310,35,<U+05D0><U+05D9><U+05E9><U+05D4>,TRUE
34,,NA,,NA,7,1.5566,"<U+05D7><U+05D9><U+05E4><U+05D5><U+05E9><U+05D9><U+05EA>
",return,1.4448,4,1.1085,0,33,33,65,1,khipushit.ogg,khipushit,<U+05D7><U+05D9><U+05E4><U+05D5><U+05E9><U+05D9><U+05EA>,Animal,0.081689842,NA,3,a,257,2.409933123,NA,NA,310,35,<U+05D0><U+05D9><U+05E9><U+05D4>,TRUE
35,,NA,,NA,7,1.233,"<U+05D9><U+05E2><U+05DC>
",return,0.8607,4,0.4014,0,34,34,169,1,yael.ogg,yael,<U+05D9><U+05E2><U+05DC>,Animal,0.118427262,NA,2,a,4726,3.674493717,NA,NA,310,35,<U+05D0><U+05D9><U+05E9><U+05D4>,TRUE
36,,NA,,NA,7,1.153,"<U+05D1><U+05D5><U+05D1><U+05D4>
",return,1.4557,5,1.4715,0,35,35,22,1,buba.ogg,buba,<U+05D1><U+05D5><U+05D1><U+05D4>,Object,0.085309803,NA,2,l,942,2.974050903,NA,NA,310,35,<U+05D0><U+05D9><U+05E9><U+05D4>,TRUE
37,,NA,,NA,7,1.2501,"<U+05E7><U+05E8><U+05E0><U+05E3>
",return,1.1744,3,1.0857,0,36,36,46,1,karnaf.ogg,karnaf,<U+05E7><U+05E8><U+05E0><U+05E3>,Animal,0.147574842,NA,2,a,312,2.494154594,NA,NA,310,35,<U+05D0><U+05D9><U+05E9><U+05D4>,TRUE
38,,NA,,NA,2,4.4709,"<U+05D7><U+05D5><U+05D2><U+05DC><U+05D4>
",return,2.3773,4,0.8396,0,37,37,67,1,khugla.ogg,khugla,<U+05D7><U+05D5><U+05D2><U+05DC><U+05D4>,Animal,0.093599491,NA,2,a,59,1.770852012,NA,NA,310,35,<U+05D0><U+05D9><U+05E9><U+05D4>,TRUE
39,,NA,,NA,7,1.1014,"<U+05D1><U+05E8><U+05D1><U+05D5><U+05E8>
",return,1.1906,5,1.3682,0,38,38,17,1,barbur.ogg,barbur,<U+05D1><U+05E8><U+05D1><U+05D5><U+05E8>,Animal,0.092549652,NA,2,a,329,2.517195898,NA,NA,310,35,<U+05D0><U+05D9><U+05E9><U+05D4>,TRUE
40,,NA,,NA,5,3.0221,"<U+05DE><U+05D8><U+05E2><U+05DF>
",return,1.5095,4,1.2879,0,39,39,106,1,mitan.ogg,mitan,<U+05DE><U+05D8><U+05E2><U+05DF>,Object,0.092752762,NA,2,l,3876,3.588383768,NA,NA,310,35,<U+05D0><U+05D9><U+05E9><U+05D4>,TRUE
41,,NA,,NA,7,2.4928,"<U+05EA><U+05D9><U+05E7><U+05DF>
",return,1.7119,2,1.2426,0,40,40,155,1,tikan.ogg,tikan,<U+05EA><U+05D9><U+05E7><U+05DF>,Animal,0.091878034,NA,2,a,661,2.820201459,NA,NA,310,35,<U+05D0><U+05D9><U+05E9><U+05D4>,TRUE
42,,NA,,NA,7,1.1937,"<U+05E7><U+05D5><U+05E4><U+05D9><U+05E3>
",return,1.5914,5,4.9259,0,41,41,76,1,kofif.ogg,kofif,<U+05E7><U+05D5><U+05E4><U+05D9><U+05E3>,Animal,0.058681544,NA,2,a,26,1.414973348,NA,NA,310,35,<U+05D0><U+05D9><U+05E9><U+05D4>,TRUE
43,,NA,,NA,7,1.2215,"<U+05D9><U+05D2><U+05D5><U+05D0><U+05E8>
",return,1.2435,4,1.038,0,42,42,171,1,yaguar.ogg,yaguar,<U+05D9><U+05D2><U+05D5><U+05D0><U+05E8>,Animal,0.099110015,NA,3,a,279,2.445604203,NA,NA,310,35,<U+05D0><U+05D9><U+05E9><U+05D4>,TRUE
44,,NA,,NA,7,1.1825,"<U+05DE><U+05D9><U+05DB><U+05DC>
",return,1.2596,4,0.4209,0,43,43,101,1,meykhal.ogg,meykhal,<U+05DE><U+05D9><U+05DB><U+05DC>,Object,0.106401555,NA,2,l,4043,3.606703741,NA,NA,310,35,<U+05D0><U+05D9><U+05E9><U+05D4>,TRUE
45,,NA,,NA,5,2.1005,"<U+05DE><U+05D7><U+05E7>
",return,0.871,4,0.508,0,44,44,85,1,makhak.ogg,makhak,<U+05DE><U+05D7><U+05E7>,Object,0.09056624,NA,2,l,1987,3.298197867,NA,NA,310,35,<U+05D0><U+05D9><U+05E9><U+05D4>,TRUE
46,,NA,,NA,7,1.058,"<U+05D7><U+05D9><U+05DC><U+05D6><U+05D5><U+05DF>
",return,1.3485,4,0.4265,0,45,45,64,1,khilazon.ogg,khilazon,<U+05D7><U+05D9><U+05DC><U+05D6><U+05D5><U+05DF>,Animal,0.087583728,NA,3,a,229,2.359835482,NA,NA,310,35,<U+05D0><U+05D9><U+05E9><U+05D4>,TRUE
47,,NA,,NA,7,1.2185,"<U+05E6><U+05DC><U+05D7><U+05EA>
",return,1.2095,4,0.4296,0,46,46,159,1,tzalakhat.ogg,tzalakhat,<U+05E6><U+05DC><U+05D7><U+05EA>,Object,0.123914987,NA,3,l,450,2.653212514,NA,NA,310,35,<U+05D0><U+05D9><U+05E9><U+05D4>,TRUE
48,,NA,,NA,7,1.4325,"<U+05E4><U+05E0><U+05D3><U+05D4>
",return,1.1925,6,1.6211,0,47,47,117,1,panda.ogg,panda,<U+05E4><U+05E0><U+05D3><U+05D4>,Animal,0.136955202,NA,2,a,325,2.511883361,NA,NA,310,35,<U+05D0><U+05D9><U+05E9><U+05D4>,TRUE
49,,NA,,NA,7,1.1855,"<U+05D6><U+05D1><U+05E8><U+05D4>
",return,1.2297,4,0.6444,0,48,48,176,1,zebra.ogg,zebra,<U+05D6><U+05D1><U+05E8><U+05D4>,Animal,0.169265404,NA,2,a,190,2.278753601,NA,NA,310,35,<U+05D0><U+05D9><U+05E9><U+05D4>,TRUE
50,,NA,,NA,7,1.135,"<U+05DE><U+05D2><U+05D6><U+05D9><U+05DF>
",return,1.4305,4,0.4191,0,49,49,81,1,magazin.ogg,magazin,<U+05DE><U+05D2><U+05D6><U+05D9><U+05DF>,Object,0.125492305,NA,3,l,4437,3.647089429,NA,NA,310,35,<U+05D0><U+05D9><U+05E9><U+05D4>,TRUE
51,,NA,,NA,7,1.1693,"<U+05DE><U+05E1><U+05DB><U+05D4>
",return,1.3914,3,0.7688,0,50,50,92,1,masekha.ogg,masekha,<U+05DE><U+05E1><U+05DB><U+05D4>,Object,0.096281089,NA,3,l,318,2.50242712,NA,NA,310,35,<U+05D0><U+05D9><U+05E9><U+05D4>,TRUE
52,,NA,,NA,7,1.1211,"<U+05E1><U+05E8><U+05D8>
",return,0.9773,6,0.4358,0,51,51,131,1,seret.ogg,seret,<U+05E1><U+05E8><U+05D8>,Object,0.089209117,NA,2,l,21281,4.327992032,NA,NA,310,35,<U+05D0><U+05D9><U+05E9><U+05D4>,TRUE
53,,NA,,NA,7,1.1538,"<U+05DE><U+05D6><U+05DC><U+05D2>
",return,0.7764,4,0.5703,0,52,52,95,1,mazleg.ogg,mazleg,<U+05DE><U+05D6><U+05DC><U+05D2>,Object,0.100036196,NA,2,l,133,2.123851641,NA,NA,310,35,<U+05D0><U+05D9><U+05E9><U+05D4>,TRUE
54,,NA,,NA,7,1.468,"<U+05D1><U+05E8><U+05D5><U+05D5><U+05D6>
",return,1.3163,4,0.4196,0,53,53,18,1,barvaz.ogg,barvaz,<U+05D1><U+05E8><U+05D5><U+05D5><U+05D6>,Animal,0.108059518,NA,2,a,716,2.854913022,NA,NA,310,35,<U+05D0><U+05D9><U+05E9><U+05D4>,TRUE
55,,NA,,NA,6,1.4868,"<U+05DE><U+05E7><U+05E7>
",return,1.3942,3,2.0682,0,54,54,84,1,makak.ogg,makak,<U+05DE><U+05E7><U+05E7>,Animal,0.090016395,NA,2,a,33,1.51851394,NA,NA,310,35,<U+05D0><U+05D9><U+05E9><U+05D4>,TRUE
56,,NA,,NA,7,1.1228,"<U+05DE><U+05E8><U+05D0><U+05D4>
",return,1.3564,4,0.3845,0,55,55,89,1,mara.ogg,mara,<U+05DE><U+05E8><U+05D0><U+05D4>,Object,0.125482678,NA,2,l,10153,4.006594386,NA,NA,310,35,<U+05D0><U+05D9><U+05E9><U+05D4>,TRUE
57,,NA,,NA,7,1.283,"<U+05D1><U+05E0><U+05D9><U+05D9><U+05DF>
",return,1.0286,4,0.4326,0,56,56,19,1,binyan.ogg,binyan,<U+05D1><U+05E0><U+05D9><U+05D9><U+05DF>,Object,0.117052279,NA,2,l,9236,3.965483924,NA,NA,310,35,<U+05D0><U+05D9><U+05E9><U+05D4>,TRUE
58,,NA,,NA,7,0.8714,"<U+05DE><U+05D6><U+05E8><U+05DF>
",return,1.1603,4,0.4932,0,57,57,108,1,mizran.ogg,mizran,<U+05DE><U+05D6><U+05E8><U+05DF>,Object,0.087724812,NA,2,l,108,2.033423755,NA,NA,310,35,<U+05D0><U+05D9><U+05E9><U+05D4>,TRUE
59,,NA,,NA,7,0.9265,"<U+05DE><U+05D3><U+05D5><U+05D6><U+05D4>
",return,1.3814,3,0.4506,0,58,58,97,1,meduza.ogg,meduza,<U+05DE><U+05D3><U+05D5><U+05D6><U+05D4>,Animal,0.115551554,NA,3,a,315,2.498310554,NA,NA,310,35,<U+05D0><U+05D9><U+05E9><U+05D4>,TRUE
60,,NA,,NA,7,2.999,"<U+05D1><U+05D1><U+05D5><U+05DF>
",return,1.4104,4,0.4178,0,59,59,14,1,baboon.ogg,baboon,<U+05D1><U+05D1><U+05D5><U+05DF>,Animal,0.106068902,NA,2,a,416,2.619093331,NA,NA,310,35,<U+05D0><U+05D9><U+05E9><U+05D4>,TRUE
61,,NA,,NA,6,1.3699,"<U+05E2><U+05DE><U+05D5><U+05D3>
",return,0.8218,4,0.6853,0,60,60,7,1,amud.ogg,amud,<U+05E2><U+05DE><U+05D5><U+05D3>,Object,0.063451871,NA,2,l,6218,3.793650718,NA,NA,310,35,<U+05D0><U+05D9><U+05E9><U+05D4>,TRUE
62,,NA,,NA,7,1.1335,"<U+05DE><U+05D9><U+05D8><U+05D4>
",return,1.1051,4,0.387,0,61,61,105,1,mita.ogg,mita,<U+05DE><U+05D9><U+05D8><U+05D4>,Object,0.103846908,NA,2,l,497,2.696356389,NA,NA,310,35,<U+05D0><U+05D9><U+05E9><U+05D4>,TRUE
63,,NA,,NA,7,1.12,"<U+05E0><U+05D7><U+05E9>
",return,0.8555,3,0.47,0,62,62,110,1,nakhash.ogg,nakhash,<U+05E0><U+05D7><U+05E9>,Animal,0.088418685,NA,2,a,1825,3.261262869,NA,NA,310,35,<U+05D0><U+05D9><U+05E9><U+05D4>,TRUE
64,,NA,,NA,6,1.9656,"<U+05E4><U+05E8><U+05E2><U+05D5><U+05E9>
",return,1.0224,3,1.1941,0,63,63,118,1,parosh.ogg,parosh,<U+05E4><U+05E8><U+05E2><U+05D5><U+05E9>,Animal,0.103216074,NA,2,a,40,1.602059991,NA,NA,310,35,<U+05D0><U+05D9><U+05E9><U+05D4>,TRUE
65,,NA,,NA,6,2.2402,"<U+05DE><U+05E9><U+05E7><U+05D5><U+05E3>
",return,1.3443,4,1.6802,0,64,64,93,1,mashkof.ogg,mashkof,<U+05DE><U+05E9><U+05E7><U+05D5><U+05E3>,Object,0.09702573,NA,2,l,149,2.173186268,NA,NA,310,35,<U+05D0><U+05D9><U+05E9><U+05D4>,TRUE
66,,NA,,NA,7,0.9654,"<U+05D1><U+05DC><U+05D5><U+05DF>
",return,0.9066,5,0.4412,0,65,65,16,1,balon.ogg,balon,<U+05D1><U+05DC><U+05D5><U+05DF>,Object,0.111855216,NA,2,l,443,2.646403726,NA,NA,310,35,<U+05D0><U+05D9><U+05E9><U+05D4>,TRUE
67,,NA,,NA,7,0.9817,"<U+05E9><U+05D8><U+05D9><U+05D7>
",return,0.9795,4,0.3903,0,66,66,137,1,shatiakh.ogg,shatiakh,<U+05E9><U+05D8><U+05D9><U+05D7>,Object,0.113188751,NA,2,l,291,2.463892989,NA,NA,310,35,<U+05D0><U+05D9><U+05E9><U+05D4>,TRUE
68,,NA,,NA,7,1.2379,"<U+05D9><U+05EA><U+05D5><U+05E9>
",return,1.0423,3,0.3892,0,67,67,174,1,yatush.ogg,yatush,<U+05D9><U+05EA><U+05D5><U+05E9>,Animal,0.086324573,NA,2,a,184,2.264817823,NA,NA,310,35,<U+05D0><U+05D9><U+05E9><U+05D4>,TRUE
69,,NA,,NA,7,2.2187,"<U+05D9><U+05E0><U+05E9><U+05D5><U+05E3>
",return,1.5113,4,0.3237,0,68,68,173,1,yanshuf.ogg,yanshuf,<U+05D9><U+05E0><U+05E9><U+05D5><U+05E3>,Animal,0.114506856,NA,2,a,368,2.565847819,NA,NA,310,35,<U+05D0><U+05D9><U+05E9><U+05D4>,TRUE
70,,NA,,NA,7,0.8729,"<U+05DB><U+05E4><U+05EA><U+05D5><U+05E8>
",return,0.994,4,0.3851,0,69,69,42,1,kaftor.ogg,kaftor,<U+05DB><U+05E4><U+05EA><U+05D5><U+05E8>,Object,0.060227305,NA,2,l,1513,3.179838928,NA,NA,310,35,<U+05D0><U+05D9><U+05E9><U+05D4>,TRUE
71,,NA,,NA,7,1.3662,"<U+05E7><U+05DC><U+05E1><U+05E8>
",return,0.9587,4,0.4241,0,70,70,73,1,klaser.ogg,klaser,<U+05E7><U+05DC><U+05E1><U+05E8>,Object,0.118595682,NA,2,l,23,1.361727836,NA,NA,310,35,<U+05D0><U+05D9><U+05E9><U+05D4>,TRUE
72,,NA,,NA,7,2.2185,"<U+05E2><U+05DB><U+05D1><U+05E8>
",return,0.9816,3,0.3885,0,71,71,2,1,akhbar.ogg,akhbar,<U+05E2><U+05DB><U+05D1><U+05E8>,Animal,0.105947159,NA,2,a,800,2.903089987,NA,NA,310,35,<U+05D0><U+05D9><U+05E9><U+05D4>,TRUE
73,,NA,,NA,7,0.9172,"<U+05E1><U+05D5><U+05DC><U+05DD>
",return,1.1331,4,0.3182,0,72,72,147,1,sulam.ogg,sulam,<U+05E1><U+05D5><U+05DC><U+05DD>,Object,0.109472513,NA,2,l,1593,3.202215776,NA,NA,310,35,<U+05D0><U+05D9><U+05E9><U+05D4>,TRUE
74,,NA,,NA,7,1.0716,"<U+05E9><U+05DE><U+05E4><U+05D5>
",return,0.8443,5,0.4385,0,73,73,135,1,shampo.ogg,shampo,<U+05E9><U+05DE><U+05E4><U+05D5>,Object,0.100922048,NA,2,l,90,1.954242509,NA,NA,310,35,<U+05D0><U+05D9><U+05E9><U+05D4>,TRUE
75,,NA,,NA,7,0.989,"<U+05DE><U+05D1><U+05E8><U+05E9><U+05EA>
",return,2.1443,4,0.3728,0,74,74,107,1,mivreshet.ogg,mivreshet,<U+05DE><U+05D1><U+05E8><U+05E9><U+05EA>,Object,0.149914548,NA,3,l,224,2.350248018,NA,NA,310,35,<U+05D0><U+05D9><U+05E9><U+05D4>,TRUE
76,,NA,,NA,7,0.9158,"<U+05DE><U+05E1><U+05DE><U+05E8>
",return,0.9753,4,0.4364,0,75,75,94,1,masmer.ogg,masmer,<U+05DE><U+05E1><U+05DE><U+05E8>,Object,0.113393702,NA,2,l,197,2.294466226,NA,NA,310,35,<U+05D0><U+05D9><U+05E9><U+05D4>,TRUE
77,,NA,,NA,7,1.0021,"<U+05DE><U+05E8><U+05D2><U+05DE><U+05D4>
",return,1.9077,2,0.7209,0,76,76,90,1,margema.ogg,margema,<U+05DE><U+05E8><U+05D2><U+05DE><U+05D4>,Object,0.103211492,NA,3,l,517,2.713490543,NA,NA,310,35,<U+05D0><U+05D9><U+05E9><U+05D4>,TRUE
78,,NA,,NA,4,4.1405,"<U+05E2><U+05D9><U+05EA><U+05D5><U+05DF>
",return,1.3703,4,1.2673,0,77,77,40,1,iton.ogg,iton,<U+05E2><U+05D9><U+05EA><U+05D5><U+05DF>,Object,0.097421117,NA,2,l,5979,3.776628553,NA,NA,310,35,<U+05D0><U+05D9><U+05E9><U+05D4>,TRUE
79,,NA,,NA,7,1.3417,"<U+05E0><U+05DE><U+05E8>
",return,0.9083,3,0.3892,0,78,78,111,1,namer.ogg,namer,<U+05E0><U+05DE><U+05E8>,Animal,0.093454249,NA,2,a,869,2.939019776,NA,NA,310,35,<U+05D0><U+05D9><U+05E9><U+05D4>,TRUE
80,,NA,,NA,1,2.9834,"<U+05E2><U+05E6><U+05DC><U+05DF>
",return,4.0418,3,1.3344,0,79,79,12,1,atzlan.ogg,atzlan,<U+05E2><U+05E6><U+05DC><U+05DF>,Animal,0.109640174,NA,2,a,191,2.281033367,NA,NA,310,35,<U+05D0><U+05D9><U+05E9><U+05D4>,TRUE
81,,NA,,NA,7,0.9668,"<U+05D6><U+05D0><U+05D1>
",return,1.0983,2,0.4645,0,80,80,177,1,zeev.ogg,zeev,<U+05D6><U+05D0><U+05D1>,Animal,0.120690554,NA,2,a,8288,3.918449742,NA,NA,310,35,<U+05D0><U+05D9><U+05E9><U+05D4>,TRUE
82,,NA,,NA,7,1.0346,"<U+05E7><U+05D9><U+05E4><U+05D5><U+05D3>
",return,0.794,4,0.4182,0,81,81,70,1,kipod.ogg,kipod,<U+05E7><U+05D9><U+05E4><U+05D5><U+05D3>,Animal,0.123448588,NA,2,a,373,2.571708832,NA,NA,310,35,<U+05D0><U+05D9><U+05E9><U+05D4>,TRUE
83,,NA,,NA,7,0.8549,"<U+05DE><U+05DB><U+05E0><U+05E1>
",return,1.0427,4,0.4079,0,82,82,102,1,mikhnas.ogg,mikhnas,<U+05DE><U+05DB><U+05E0><U+05E1>,Object,0.095144257,NA,2,l,424,2.627365857,NA,NA,310,35,<U+05D0><U+05D9><U+05E9><U+05D4>,TRUE
84,,NA,,NA,2,2.9899,"<U+05D2><U+05D1><U+05E8><U+05EA>
",return,1.2076,4,0.716,0,83,83,25,1,delet.ogg,delet,<U+05D3><U+05DC><U+05EA>,Object,0.105762191,NA,2,l,1923,3.283979284,NA,NA,310,35,<U+05D0><U+05D9><U+05E9><U+05D4>,FALSE
85,,NA,,NA,7,1.1531,"<U+05E4><U+05D9><U+05E0><U+05D2><U+05D5><U+05D5><U+05D9><U+05DF>
",return,3.3441,5,1.0842,0,84,84,121,1,pinguin.ogg,pinguin,<U+05E4><U+05D9><U+05E0><U+05D2><U+05D5><U+05D5><U+05D9><U+05DF>,Animal,0.16885522,NA,3,a,445,2.648360011,NA,NA,310,35,<U+05D0><U+05D9><U+05E9><U+05D4>,TRUE
86,,NA,,NA,2,3.0477,"<U+05D1><U+05D5><U+05E0><U+05D4>
",return,1.1974,4,0.958,0,85,85,20,1,bone.ogg,bone,<U+05D1><U+05D5><U+05E0><U+05D4>,Animal,0.109915785,NA,2,a,2950,3.469822016,NA,NA,310,35,<U+05D0><U+05D9><U+05E9><U+05D4>,TRUE
87,,NA,,NA,7,1.1014,"<U+05E9><U+05D1><U+05DC><U+05D5><U+05DC>
",return,1.8559,4,0.3888,0,86,86,133,1,shablul.ogg,shablul,<U+05E9><U+05D1><U+05DC><U+05D5><U+05DC>,Animal,0.137633026,NA,2,a,259,2.413299764,NA,NA,310,35,<U+05D0><U+05D9><U+05E9><U+05D4>,TRUE
88,,NA,,NA,6,1.5399,"<U+05E2><U+05D2><U+05D9><U+05DC>
",return,1.2408,5,0.5429,0,87,87,0,1,agil.ogg,agil,<U+05E2><U+05D2><U+05D9><U+05DC>,Object,0.086492002,NA,2,l,101,2.004321374,NA,NA,310,35,<U+05D0><U+05D9><U+05E9><U+05D4>,TRUE
89,,NA,,NA,7,1.0527,"<U+05D3><U+05D9><U+05E8><U+05D4>
",return,0.8222,4,0.4541,0,88,88,26,1,dira.ogg,dira,<U+05D3><U+05D9><U+05E8><U+05D4>,Object,0.093515851,NA,2,l,1560,3.193124598,NA,NA,310,35,<U+05D0><U+05D9><U+05E9><U+05D4>,TRUE
90,,NA,,NA,3,4.8133,"<U+05D4><U+05E8><U+05D5><U+05D0><U+05D9><U+05DF>
",return,1.3364,1,0.6924,0,89,89,39,1,heroin.ogg,heroin,<U+05D4><U+05E8><U+05D5><U+05D0><U+05D9><U+05DF>,Object,0.060458813,NA,3,l,284,2.45331834,NA,NA,310,35,<U+05D0><U+05D9><U+05E9><U+05D4>,TRUE
91,,NA,,NA,7,1.14,"<U+05D6><U+05D1><U+05DC>
",return,0.9947,2,1.022,0,90,90,178,1,zevel.ogg,zevel,<U+05D6><U+05D1><U+05DC>,Object,0.064413197,NA,2,l,947,2.976349979,NA,NA,310,35,<U+05D0><U+05D9><U+05E9><U+05D4>,TRUE
92,,NA,,NA,7,1.2834,"<U+05DE><U+05D6><U+05E8><U+05E7>
",return,0.9273,3,1.0713,0,91,91,96,1,mazrek.ogg,mazrek,<U+05DE><U+05D6><U+05E8><U+05E7>,Object,0.086367108,NA,2,l,89,1.949390007,NA,NA,310,35,<U+05D0><U+05D9><U+05E9><U+05D4>,TRUE
93,,NA,,NA,7,1.4371,"<U+05D7><U+05D5><U+05E6><U+05E5>
",return,1.3474,4,0.566,0,92,92,66,1,khotzetz.ogg,khotzetz,<U+05D7><U+05D5><U+05E6><U+05E5>,Object,0.089251935,NA,2,l,282,2.450249108,NA,NA,310,35,<U+05D0><U+05D9><U+05E9><U+05D4>,TRUE
94,,NA,,NA,7,1.1156,"<U+05DB><U+05E4><U+05E4><U+05D4>
",return,0.6995,4,0.3768,0,93,93,52,1,kfafa.ogg,kfafa,<U+05DB><U+05E4><U+05E4><U+05D4>,Object,0.159954116,NA,2,l,102,2.008600172,NA,NA,310,35,<U+05D0><U+05D9><U+05E9><U+05D4>,TRUE
95,,NA,,NA,7,1.2073,"<U+05D3><U+05D9><U+05D5><U+05E0><U+05D5><U+05DF>
",return,1.4344,4,0.3911,0,94,94,29,1,dyunon.ogg,dyunon,<U+05D3><U+05D9><U+05D5><U+05E0><U+05D5><U+05DF>,Animal,0.11314705,NA,3,a,160,2.204119983,NA,NA,310,35,<U+05D0><U+05D9><U+05E9><U+05D4>,TRUE
96,,NA,,NA,7,1.4032,"<U+05DB><U+05D9><U+05E0><U+05D4>
",return,1.375,3,0.5685,0,95,95,69,1,kina.ogg,kina,<U+05DB><U+05D9><U+05E0><U+05D4>,Animal,0.063055128,NA,2,a,3145,3.49762065,NA,NA,310,35,<U+05D0><U+05D9><U+05E9><U+05D4>,TRUE
97,,NA,,NA,7,1.0177,"<U+05D3><U+05D1><U+05D5><U+05E8>
",return,0.8803,4,0.4367,0,96,96,24,1,dabur.ogg,dabur,<U+05D3><U+05D1><U+05D5><U+05E8>,Animal,0.082003802,NA,2,a,284,2.45331834,NA,NA,310,35,<U+05D0><U+05D9><U+05E9><U+05D4>,TRUE
98,,NA,,NA,7,1.1683,"<U+05E7><U+05E8><U+05E6><U+05D9><U+05D4>
",return,1.2249,3,0.8527,0,97,97,47,1,kartziya.ogg,kartziya,<U+05E7><U+05E8><U+05E6><U+05D9><U+05D4>,Animal,0.095871754,NA,3,a,24,1.380211242,NA,NA,310,35,<U+05D0><U+05D9><U+05E9><U+05D4>,TRUE
99,,NA,,NA,7,0.9546,"<U+05E2><U+05DB><U+05D1><U+05E8><U+05D5><U+05E9>
",return,1.9551,3,1.7516,0,98,98,3,1,akhbarosh.ogg,akhbarosh,<U+05E2><U+05DB><U+05D1><U+05E8><U+05D5><U+05E9>,Animal,0.114850186,NA,3,a,143,2.155336037,NA,NA,310,35,<U+05D0><U+05D9><U+05E9><U+05D4>,TRUE
100,,NA,,NA,7,0.9534,"<U+05E9><U+05DE><U+05D9><U+05DB><U+05D4>
",return,3.0276,4,0.3828,0,99,99,145,1,smikha.ogg,smikha,<U+05E9><U+05DE><U+05D9><U+05DB><U+05D4>,Object,0.105214648,NA,2,l,143,2.155336037,NA,NA,310,35,<U+05D0><U+05D9><U+05E9><U+05D4>,TRUE
101,,NA,,NA,7,0.8919,"<U+05E6><U+05D1><U+05D5><U+05E2>
",return,0.862,2,0.3702,0,100,100,161,1,tzavoa.ogg,tzavoa,<U+05E6><U+05D1><U+05D5><U+05E2>,Animal,0.099820822,NA,2,a,788,2.896526217,NA,NA,310,35,<U+05D0><U+05D9><U+05E9><U+05D4>,TRUE
102,,NA,,NA,7,0.9017,"<U+05DE><U+05D7><U+05D1><U+05EA>
",return,0.7952,4,0.4977,0,101,101,88,1,makhvat.ogg,makhvat,<U+05DE><U+05D7><U+05D1><U+05EA>,Object,0.084296793,NA,2,l,71,1.851258349,NA,NA,310,35,<U+05D0><U+05D9><U+05E9><U+05D4>,TRUE
103,,NA,,NA,7,0.9749,"<U+05E4><U+05D8><U+05D9><U+05E9>
",return,1.2753,4,2.3859,0,102,102,120,1,patish.ogg,patish,<U+05E4><U+05D8><U+05D9><U+05E9>,Object,0.086733863,NA,2,l,1019,3.008174184,NA,NA,310,35,<U+05D0><U+05D9><U+05E9><U+05D4>,TRUE
104,,NA,,NA,7,1.0183,"<U+05DE><U+05D2><U+05DC><U+05E9><U+05D4>
",return,1.3755,4,0.4356,0,103,103,83,1,maglesha.ogg,maglesha,<U+05DE><U+05D2><U+05DC><U+05E9><U+05D4>,Object,0.116013341,NA,3,l,29,1.462397998,NA,NA,310,35,<U+05D0><U+05D9><U+05E9><U+05D4>,TRUE
105,,NA,,NA,7,0.8871,"<U+05DE><U+05E9><U+05D7><U+05D4>
",return,0.7761,4,0.4011,0,104,104,104,1,mishkha.ogg,mishkha,<U+05DE><U+05E9><U+05D7><U+05D4>,Object,0.112146221,NA,2,l,430,2.633468456,NA,NA,310,35,<U+05D0><U+05D9><U+05E9><U+05D4>,TRUE
106,,NA,,NA,7,2.6489,"<U+05DB><U+05D9><U+05E1><U+05D0>
",return,0.8444,4,0.3678,0,105,105,71,1,kise.ogg,kise,<U+05DB><U+05D9><U+05E1><U+05D0>,Object,0.091946796,NA,2,l,1321,3.120902818,NA,NA,310,35,<U+05D0><U+05D9><U+05E9><U+05D4>,TRUE
107,,NA,,NA,6,1.4149,"<U+05EA><U+05D9><U+05D1><U+05D4>
",return,0.9103,4,0.4766,0,106,106,153,1,teyva.ogg,teyva,<U+05EA><U+05D9><U+05D1><U+05D4>,Object,0.124722831,NA,2,l,627,2.797267541,NA,NA,310,35,<U+05D0><U+05D9><U+05E9><U+05D4>,TRUE
108,,NA,,NA,7,0.9697,"<U+05E2><U+05E7><U+05E8><U+05D1>
",return,1.0481,3,1.0366,0,107,107,4,1,akrav.ogg,akrav,<U+05E2><U+05E7><U+05E8><U+05D1>,Animal,0.109148823,NA,2,a,269,2.42975228,NA,NA,310,35,<U+05D0><U+05D9><U+05E9><U+05D4>,TRUE
109,,NA,,NA,7,1.2227,"<U+05D0><U+05D5><U+05D2><U+05E8>
",return,1.3971,4,1.1345,0,108,108,114,1,oger.ogg,oger,<U+05D0><U+05D5><U+05D2><U+05E8>,Animal,0.10658478,NA,2,a,316,2.499687083,NA,NA,310,35,<U+05D0><U+05D9><U+05E9><U+05D4>,TRUE
110,,NA,,NA,7,1.3392,"<U+05DB><U+05DC><U+05D5><U+05D1>
",return,0.8288,3,0.4027,0,109,109,74,1,kluv.ogg,kluv,<U+05DB><U+05DC><U+05D5><U+05D1>,Object,0.114783913,NA,2,l,481,2.682145076,NA,NA,310,35,<U+05D0><U+05D9><U+05E9><U+05D4>,TRUE
111,,NA,,NA,7,0.9048,"<U+05D9><U+05DC><U+05E7><U+05D5><U+05D8>
",return,2.8925,4,0.138,0,110,110,172,1,yalkut.ogg,yalkut,<U+05D9><U+05DC><U+05E7><U+05D5><U+05D8>,Object,0.094344929,NA,2,l,300,2.477121255,NA,NA,310,35,<U+05D0><U+05D9><U+05E9><U+05D4>,TRUE
112,,NA,,NA,7,0.9668,"<U+05E2><U+05DB><U+05D1><U+05D9><U+05E9>
",return,1.425,3,0.3787,0,111,111,1,1,akavish.ogg,akavish,<U+05E2><U+05DB><U+05D1><U+05D9><U+05E9>,Animal,0.085073575,NA,3,a,438,2.641474111,NA,NA,310,35,<U+05D0><U+05D9><U+05E9><U+05D4>,TRUE
113,,NA,,NA,7,0.9739,"<U+05E2><U+05D8><U+05DC><U+05E3>
",return,2.9932,3,0.9768,0,112,112,11,1,atalef.ogg,atalef,<U+05E2><U+05D8><U+05DC><U+05E3>,Animal,0.084217779,NA,3,a,507,2.705007959,NA,NA,310,35,<U+05D0><U+05D9><U+05E9><U+05D4>,TRUE
114,,NA,,NA,7,0.9884,"<U+05DE><U+05D7><U+05D1><U+05E8><U+05EA>
",return,0.8429,4,0.3662,0,113,113,86,1,makhberet.ogg,makhberet,<U+05DE><U+05D7><U+05D1><U+05E8><U+05EA>,Object,0.093290016,NA,3,l,2348,3.370698093,NA,NA,310,35,<U+05D0><U+05D9><U+05E9><U+05D4>,TRUE
115,,NA,,NA,7,1.4513,"<U+05D2><U+05D5><U+05E4><U+05D4>
",return,1.1267,1,0.4413,0,114,114,38,1,gufa.ogg,gufa,<U+05D2><U+05D5><U+05E4><U+05D4>,Object,0.134599254,NA,2,l,1580,3.198657087,NA,NA,310,35,<U+05D0><U+05D9><U+05E9><U+05D4>,TRUE
116,,NA,,NA,7,1.5177,"<U+05E9><U+05E8><U+05E7><U+05DF>
",return,3.0725,4,1.0998,0,115,115,136,1,sharkan.ogg,sharkan,<U+05E9><U+05E8><U+05E7><U+05DF>,Animal,0.100178316,NA,2,a,33,1.51851394,NA,NA,310,35,<U+05D0><U+05D9><U+05E9><U+05D4>,TRUE
117,,NA,,NA,6,1.3979,"<U+05E9><U+05DE><U+05DE><U+05D9><U+05EA>
",return,2.0754,4,0.3831,0,116,116,144,1,smamit.ogg,smamit,<U+05E9><U+05DE><U+05DE><U+05D9><U+05EA>,Animal,0.104532413,NA,2,a,89,1.949390007,NA,NA,310,35,<U+05D0><U+05D9><U+05E9><U+05D4>,TRUE
118,,NA,,NA,3,3.2862,"<U+05E4><U+05D5><U+05DE><U+05D4>
",return,1.4651,3,0.4989,0,117,117,122,1,puma.ogg,puma,<U+05E4><U+05D5><U+05DE><U+05D4>,Animal,0.10772679,NA,2,a,242,2.383815366,NA,NA,310,35,<U+05D0><U+05D9><U+05E9><U+05D4>,TRUE
119,,NA,,NA,7,1.0409,"<U+05D2><U+05D3><U+05E8>
",return,0.8936,4,0.4127,0,118,118,33,1,gader.ogg,gader,<U+05D2><U+05D3><U+05E8>,Object,0.151912183,NA,2,l,2156,3.333648757,NA,NA,310,35,<U+05D0><U+05D9><U+05E9><U+05D4>,TRUE
120,,NA,,NA,7,1.2554,"<U+05D7><U+05E8><U+05D3><U+05D5><U+05DF>
",return,1.2422,4,0.3944,0,119,119,58,1,khardon.ogg,khardon,<U+05D7><U+05E8><U+05D3><U+05D5><U+05DF>,Animal,0.114361823,NA,2,a,148,2.170261715,NA,NA,310,35,<U+05D0><U+05D9><U+05E9><U+05D4>,TRUE
121,,NA,,NA,7,0.9519,"<U+05EA><U+05E0><U+05E9><U+05DE><U+05EA>
",return,1.6767,4,0.5545,0,120,120,156,1,tinshemet.ogg,tinshemet,<U+05EA><U+05E0><U+05E9><U+05DE><U+05EA>,Animal,0.11601489,NA,3,a,61,1.785329835,NA,NA,310,35,<U+05D0><U+05D9><U+05E9><U+05D4>,TRUE
122,,NA,,NA,7,0.9526,"<U+05E1><U+05D5><U+05D5><U+05D3><U+05E8>
",return,0.926,4,1.1313,0,121,121,148,1,sveder.ogg,sveder,<U+05E1><U+05D5><U+05D5><U+05D3><U+05E8>,Object,0.088040411,NA,2,l,67,1.826074803,NA,NA,310,35,<U+05D0><U+05D9><U+05E9><U+05D4>,TRUE
123,,NA,,NA,7,1.7074,"<U+05E9><U+05D5><U+05E2><U+05DC>
",return,1.2837,3,0.9704,0,122,122,140,1,shual.ogg,shual,<U+05E9><U+05D5><U+05E2><U+05DC>,Animal,0.122284986,NA,2,a,844,2.926342447,NA,NA,310,35,<U+05D0><U+05D9><U+05E9><U+05D4>,TRUE
124,,NA,,NA,7,1.4094,"<U+05D3><U+05D5><U+05DB><U+05D9><U+05E4><U+05EA>
",return,1.332,4,1.7247,0,123,123,28,1,dukhifat.ogg,dukhifat,<U+05D3><U+05D5><U+05DB><U+05D9><U+05E4><U+05EA>,Animal,0.106685437,NA,3,a,240,2.380211242,NA,NA,310,35,<U+05D0><U+05D9><U+05E9><U+05D4>,TRUE
125,,NA,,NA,7,1.0718,"<U+05D7><U+05E1><U+05D9><U+05D3><U+05D4>
",return,1.0243,5,1.5371,0,124,124,60,1,khasida.ogg,khasida,<U+05D7><U+05E1><U+05D9><U+05D3><U+05D4>,Animal,0.110862873,NA,3,a,192,2.283301229,NA,NA,310,35,<U+05D0><U+05D9><U+05E9><U+05D4>,TRUE
126,,NA,,NA,7,0.8991,"<U+05E1><U+05DB><U+05D9><U+05DF>
",return,1.0396,3,0.4547,0,125,125,126,1,sakin.ogg,sakin,<U+05E1><U+05DB><U+05D9><U+05DF>,Object,0.089768395,NA,2,l,1042,3.017867719,NA,NA,310,35,<U+05D0><U+05D9><U+05E9><U+05D4>,TRUE
127,,NA,,NA,6,2.2016,"<U+05E7><U+05D5><U+05D1><U+05E8><U+05D4>
",return,1.422,4,0.3919,0,126,126,23,1,cobra.ogg,cobra,<U+05E7><U+05D5><U+05D1><U+05E8><U+05D4>,Animal,0.082278177,NA,2,a,432,2.635483747,NA,NA,310,35,<U+05D0><U+05D9><U+05E9><U+05D4>,TRUE
128,,NA,,NA,6,1.387,"<U+05E8><U+05E2><U+05DC>
",return,0.8106,1,0.4065,0,127,127,123,1,raal.ogg,raal,<U+05E8><U+05E2><U+05DC>,Object,0.129405722,NA,2,l,596,2.77524626,NA,NA,310,35,<U+05D0><U+05D9><U+05E9><U+05D4>,TRUE
129,,NA,,NA,7,2.4792,"<U+05E9><U+05D9><U+05D7>
",return,2.3718,4,0.3919,0,128,128,143,1,siakh.ogg,siakh,<U+05E9><U+05D9><U+05D7>,Object,0.115275718,NA,2,l,4055,3.607990859,NA,NA,310,35,<U+05D0><U+05D9><U+05E9><U+05D4>,TRUE
130,,NA,,NA,7,0.9043,"<U+05DB><U+05D3><U+05D5><U+05E8>
",return,1.0077,4,0.3666,0,129,129,41,1,kadur.ogg,kadur,<U+05DB><U+05D3><U+05D5><U+05E8>,Object,0.092520744,NA,2,l,15796,4.198547125,NA,NA,310,35,<U+05D0><U+05D9><U+05E9><U+05D4>,TRUE
131,,NA,,NA,5,3.7545,"<U+05E6><U+05D5><U+05D0><U+05D4>
",return,1.1492,1,0.6676,0,130,130,166,1,tzoa.ogg,tzoa,<U+05E6><U+05D5><U+05D0><U+05D4>,Object,0.143895417,NA,2,l,332,2.521138084,NA,NA,310,35,<U+05D0><U+05D9><U+05E9><U+05D4>,TRUE
132,,NA,,NA,7,0.9713,"<U+05E6><U+05E4><U+05E8><U+05D3><U+05E2>
",return,0.9935,4,0.9386,0,131,131,163,1,tzfardea.ogg,tzfardea,<U+05E6><U+05E4><U+05E8><U+05D3><U+05E2>,Animal,0.157518089,NA,3,a,484,2.684845362,NA,NA,310,35,<U+05D0><U+05D9><U+05E9><U+05D4>,TRUE
133,,NA,,NA,5,1.4512,"<U+05DC><U+05D5><U+05D8><U+05E8><U+05D4>
",return,1.3291,4,0.426,0,132,132,80,1,lutra.ogg,lutra,<U+05DC><U+05D5><U+05D8><U+05E8><U+05D4>,Animal,0.078512102,NA,2,a,147,2.167317335,NA,NA,310,35,<U+05D0><U+05D9><U+05E9><U+05D4>,TRUE
134,,NA,,NA,6,1.4709,"<U+05DB><U+05E8><U+05D9><U+05EA>
",return,0.8159,4,0.3423,0,133,133,45,1,karit.ogg,karit,<U+05DB><U+05E8><U+05D9><U+05EA>,Object,0.099997073,NA,2,l,249,2.396199347,NA,NA,310,35,<U+05D0><U+05D9><U+05E9><U+05D4>,TRUE
135,,NA,,NA,6,2.5493,"<U+05D0><U+05DC><U+05D1><U+05D5><U+05DD>
",return,0.9187,4,0.442,0,134,134,5,1,albom.ogg,albom,<U+05D0><U+05DC><U+05D1><U+05D5><U+05DD>,Object,0.109131724,NA,2,l,18323,4.262996582,NA,NA,310,35,<U+05D0><U+05D9><U+05E9><U+05D4>,TRUE
136,,NA,,NA,6,1.6333,"<U+05E7><U+05D5><U+05D0><U+05DC><U+05D4>
",return,0.9497,5,0.755,0,135,135,75,1,koala.ogg,koala,<U+05E7><U+05D5><U+05D0><U+05DC><U+05D4>,Animal,0.06763202,NA,3,a,125,2.096910013,NA,NA,310,35,<U+05D0><U+05D9><U+05E9><U+05D4>,TRUE
137,,NA,,NA,7,0.9222,"<U+05DB><U+05E4><U+05D9><U+05EA>
",return,0.7104,4,1.3368,0,136,136,43,1,kapit.ogg,kapit,<U+05DB><U+05E4><U+05D9><U+05EA>,Object,0.097893588,NA,2,l,156,2.193124598,NA,NA,310,35,<U+05D0><U+05D9><U+05E9><U+05D4>,TRUE
138,,NA,,NA,4,2.7022,"<U+05D1><U+05D5><U+05E8><U+05D2>
",return,1.5003,4,0.6524,0,137,137,21,1,boreg.ogg,boreg,<U+05D1><U+05D5><U+05E8><U+05D2>,Object,0.123916112,NA,2,l,1630,3.212187604,NA,NA,310,35,<U+05D0><U+05D9><U+05E9><U+05D4>,TRUE
139,,NA,,NA,7,1.1522,"<U+05D0><U+05D6><U+05E0><U+05D9><U+05D4>
",return,1.1106,4,0.4028,0,138,138,116,1,ozniya.ogg,ozniya,<U+05D0><U+05D6><U+05E0><U+05D9><U+05D4>,Object,0.103960767,NA,3,l,27,1.431363764,NA,NA,310,35,<U+05D0><U+05D9><U+05E9><U+05D4>,TRUE
140,,NA,,NA,7,1.2335,<U+05E1><U+05E8><U+05D2><U+05DC>,return,0.9662,4,0.3509,0,139,139,129,1,sargel.ogg,sargel,<U+05E1><U+05E8><U+05D2><U+05DC>,Object,0.102812193,NA,2,l,532,2.725911632,NA,NA,310,35,<U+05D0><U+05D9><U+05E9><U+05D4>,TRUE
141,,NA,,NA,7,1.0554,"<U+05D7><U+05DE><U+05D5><U+05E8>
",return,1.0537,4,0.4239,0,140,140,56,1,khamor.ogg,khamor,<U+05D7><U+05DE><U+05D5><U+05E8>,Animal,0.079540603,NA,2,a,3943,3.595826777,NA,NA,310,35,<U+05D0><U+05D9><U+05E9><U+05D4>,TRUE
142,,NA,,NA,7,1.0157,"<U+05E4><U+05E8><U+05E4><U+05E8>
",return,2.6088,5,5.7362,0,141,141,119,1,parpar.ogg,parpar,<U+05E4><U+05E8><U+05E4><U+05E8>,Animal,0.097249389,NA,2,a,2731,3.4363217,NA,NA,310,35,<U+05D0><U+05D9><U+05E9><U+05D4>,TRUE
143,,NA,,NA,7,0.8523,"<U+05DB><U+05DC><U+05D1>
",return,0.8432,4,2.9345,0,142,142,50,1,kelev.ogg,kelev,<U+05DB><U+05DC><U+05D1>,Animal,0.096111767,NA,2,a,3113,3.493179121,NA,NA,310,35,<U+05D0><U+05D9><U+05E9><U+05D4>,TRUE
144,,NA,,NA,6,1.3477,"<U+05E9><U+05EA><U+05DF>
",return,0.8334,3,0.9038,0,143,143,139,1,sheten.ogg,sheten,<U+05E9><U+05EA><U+05DF>,Object,0.061768442,NA,2,l,788,2.896526217,NA,NA,310,35,<U+05D0><U+05D9><U+05E9><U+05D4>,TRUE
145,,NA,,NA,7,1.0758,"<U+05D8><U+05D9><U+05D2><U+05E8><U+05D9><U+05E1>
",return,1.4669,4,0.9338,0,144,144,154,1,tigris.ogg,tigris,<U+05D8><U+05D9><U+05D2><U+05E8><U+05D9><U+05E1>,Animal,0.084738761,NA,2,a,307,2.487138375,NA,NA,310,35,<U+05D0><U+05D9><U+05E9><U+05D4>,TRUE
146,,NA,,NA,7,0.8196,"<U+05DB><U+05D1><U+05E9><U+05D4>
",return,0.8749,4,0.9076,0,145,145,72,1,kivsa.ogg,kivsa,<U+05DB><U+05D1><U+05E9><U+05D4>,Animal,0.12512663,NA,2,a,2062,3.314288661,NA,NA,310,35,<U+05D0><U+05D9><U+05E9><U+05D4>,TRUE
147,,NA,,NA,6,1.2573,"<U+05EA><U+05D5><U+05DB><U+05D9>
",return,2.4071,5,3.0027,0,146,146,158,1,tuki.ogg,tuki,<U+05EA><U+05D5><U+05DB><U+05D9>,Animal,0.063380264,NA,2,a,384,2.584331224,NA,NA,310,35,<U+05D0><U+05D9><U+05E9><U+05D4>,TRUE
148,,NA,,NA,6,1.6388,"<U+05D9><U+05E2><U+05DF>
",return,0.8263,4,0.4815,0,147,147,170,1,yaen.ogg,yaen,<U+05D9><U+05E2><U+05DF>,Animal,0.100202575,NA,2,a,204,2.309630167,NA,NA,310,35,<U+05D0><U+05D9><U+05E9><U+05D4>,TRUE
149,,NA,,NA,7,1.5557,"<U+05DE><U+05E1><U+05DA>
",return,0.8908,4,0.4548,0,148,148,91,1,masakh.ogg,masakh,<U+05DE><U+05E1><U+05DA>,Object,0.107740089,NA,2,l,4186,3.621799224,NA,NA,310,35,<U+05D0><U+05D9><U+05E9><U+05D4>,TRUE
150,,NA,,NA,7,1.8037,"<U+05D1><U+05E7><U+05D1><U+05D5><U+05E7>
",return,1.3624,4,4.2136,0,149,149,15,1,bakbuk.ogg,bakbuk,<U+05D1><U+05E7><U+05D1><U+05D5><U+05E7>,Object,0.076802008,NA,2,l,940,2.973127854,NA,NA,310,35,<U+05D0><U+05D9><U+05E9><U+05D4>,TRUE
151,,NA,,NA,7,1.0848,"<U+05E9><U+05D5><U+05DC><U+05D7><U+05DF>
",return,1.0631,4,0.3691,0,150,150,141,1,shulkhan.ogg,shulkhan,<U+05E9><U+05D5><U+05DC><U+05D7><U+05DF>,Object,0.088036194,NA,2,l,3099,3.491221576,NA,NA,310,35,<U+05D0><U+05D9><U+05E9><U+05D4>,TRUE
152,,NA,,NA,6,1.2116,"<U+05E9><U+05E7><U+05D9><U+05EA>
",return,0.8636,4,0.3545,0,151,151,127,1,sakit.ogg,sakit,<U+05E9><U+05E7><U+05D9><U+05EA>,Object,0.074701726,NA,2,l,286,2.456366033,NA,NA,310,35,<U+05D0><U+05D9><U+05E9><U+05D4>,TRUE
153,,NA,,NA,7,1.4688,"<U+05D7><U+05E8><U+05D2><U+05D5><U+05DC>
",return,1.1961,4,1.5358,0,152,152,59,1,khargol.ogg,khargol,<U+05D7><U+05E8><U+05D2><U+05D5><U+05DC>,Animal,0.126346096,NA,2,a,94,1.973127854,NA,NA,310,35,<U+05D0><U+05D9><U+05E9><U+05D4>,TRUE
154,,NA,,NA,7,1.0566,"<U+05D3><U+05D5><U+05DC><U+05E4><U+05D9><U+05DF>
",return,2.0595,4,0.3508,0,153,153,27,1,dolfin.ogg,dolfin,<U+05D3><U+05D5><U+05DC><U+05E4><U+05D9><U+05DF>,Animal,0.076715685,NA,2,a,754,2.877371346,NA,NA,310,35,<U+05D0><U+05D9><U+05E9><U+05D4>,TRUE
155,,NA,,NA,7,1.0753,"<U+05E9><U+05E7><U+05E0><U+05D0><U+05D9>
",return,2.6108,4,0.4834,0,154,154,128,1,saknai.ogg,saknai,<U+05E9><U+05E7><U+05E0><U+05D0><U+05D9>,Animal,0.099183612,NA,2,a,98,1.991226076,NA,NA,310,35,<U+05D0><U+05D9><U+05E9><U+05D4>,TRUE
156,,NA,,NA,7,0.919,"<U+05D0><U+05E8><U+05D9><U+05D4>
",return,0.6807,3,0.3256,0,155,155,10,1,arye.ogg,arye,<U+05D0><U+05E8><U+05D9><U+05D4>,Animal,0.164735422,NA,2,a,9646,3.984347258,NA,NA,310,35,<U+05D0><U+05D9><U+05E9><U+05D4>,TRUE
157,,NA,,NA,7,0.9859,"<U+05E2><U+05DC><U+05D5><U+05E7><U+05D4>
",return,1.0499,2,0.3009,0,156,156,6,1,aluka.ogg,aluka,<U+05E2><U+05DC><U+05D5><U+05E7><U+05D4>,Animal,0.133438632,NA,3,a,49,1.69019608,NA,NA,310,35,<U+05D0><U+05D9><U+05E9><U+05D4>,TRUE
158,,NA,,NA,7,0.8701,"<U+05E7><U+05E8><U+05E9>
",return,0.7998,4,0.3537,0,157,157,51,1,keresh.ogg,keresh,<U+05E7><U+05E8><U+05E9>,Object,0.085953034,NA,2,l,284,2.45331834,NA,NA,310,35,<U+05D0><U+05D9><U+05E9><U+05D4>,TRUE
159,,NA,,NA,7,0.8326,"<U+05E6><U+05D9><U+05E0><U+05D5><U+05E8>
",return,1.477,4,1.1857,0,158,158,164,1,tzinor.ogg,tzinor,<U+05E6><U+05D9><U+05E0><U+05D5><U+05E8>,Object,0.117240734,NA,2,l,2227,3.347720217,NA,NA,310,35,<U+05D0><U+05D9><U+05E9><U+05D4>,TRUE
160,,NA,,NA,7,0.9491,"<U+05E0><U+05DE><U+05DC><U+05D4>
",return,0.7911,4,0.4138,0,159,159,112,1,nemala.ogg,nemala,<U+05E0><U+05DE><U+05DC><U+05D4>,Animal,0.120624721,NA,3,a,264,2.421603927,NA,NA,310,35,<U+05D0><U+05D9><U+05E9><U+05D4>,TRUE
161,,NA,,NA,7,0.8049,"<U+05DC><U+05D8><U+05D0><U+05D4>
",return,1.4929,4,0.4002,0,160,160,78,1,letaa.ogg,letaa,<U+05DC><U+05D8><U+05D0><U+05D4>,Animal,0.164500833,NA,3,a,374,2.572871602,NA,NA,310,35,<U+05D0><U+05D9><U+05E9><U+05D4>,TRUE
162,,NA,,NA,7,0.7346,"<U+05DE><U+05D2><U+05D1><U+05EA>
",return,0.9943,4,0.5079,0,161,161,82,1,magevet.ogg,magevet,<U+05DE><U+05D2><U+05D1><U+05EA>,Object,0.102448098,NA,3,l,108,2.033423755,NA,NA,310,35,<U+05D0><U+05D9><U+05E9><U+05D4>,TRUE
163,,NA,,NA,7,1.0169,"<U+05E8><U+05DB><U+05D1>
",return,2.0905,4,0.9057,0,162,162,124,1,rekhev.ogg,rekhev,<U+05E8><U+05DB><U+05D1>,Object,0.117218629,NA,2,l,8546,3.931762888,NA,NA,310,35,<U+05D0><U+05D9><U+05E9><U+05D4>,TRUE
164,,NA,,NA,7,1.2143,"<U+05E6><U+05DE><U+05D9><U+05D3>
",return,0.8573,6,0.5698,0,163,163,160,1,tzamid.ogg,tzamid,<U+05E6><U+05DE><U+05D9><U+05D3>,Object,0.08472456,NA,2,l,190,2.278753601,NA,NA,310,35,<U+05D0><U+05D9><U+05E9><U+05D4>,TRUE
165,,NA,,NA,7,1.1333,"<U+05D2><U+05E8><U+05D1><U+05D9><U+05DC>
",return,1.2209,4,0.3894,0,164,164,36,1,gerbil.ogg,gerbil,<U+05D2><U+05E8><U+05D1><U+05D9><U+05DC>,Animal,0.144204035,NA,2,a,60,1.77815125,NA,NA,310,35,<U+05D0><U+05D9><U+05E9><U+05D4>,TRUE
166,,NA,,NA,7,1.0693,"<U+05E1><U+05E0><U+05D0><U+05D9>
",return,0.9292,4,0.4183,0,165,165,146,1,snai.ogg,snai,<U+05E1><U+05E0><U+05D0><U+05D9>,Animal,0.110551231,NA,2,a,255,2.40654018,NA,NA,310,35,<U+05D0><U+05D9><U+05E9><U+05D4>,TRUE
167,,NA,,NA,7,0.8896,"<U+05E7><U+05E2><U+05E8><U+05D4>
",return,1.1656,4,1.2186,0,166,166,49,1,keara.ogg,keara,<U+05E7><U+05E2><U+05E8><U+05D4>,Object,0.089686304,NA,3,l,193,2.285557309,NA,NA,310,35,<U+05D0><U+05D9><U+05E9><U+05D4>,TRUE
168,,NA,,NA,2,2.4017,"<U+05D9><U+05D5><U+05E0><U+05D4>
",return,1.2081,4,0.9887,0,167,167,175,1,yona.ogg,yona,<U+05D9><U+05D5><U+05E0><U+05D4>,Animal,0.112634435,NA,2,a,3945,3.596047008,NA,NA,310,35,<U+05D0><U+05D9><U+05E9><U+05D4>,TRUE
169,,NA,,NA,7,0.9648,"<U+05D2><U+05D5><U+05E8><U+05D9><U+05DC><U+05D4>
",return,1.1101,4,0.4412,0,168,168,37,1,gorila.ogg,gorila,<U+05D2><U+05D5><U+05E8><U+05D9><U+05DC><U+05D4>,Animal,0.083233468,NA,3,a,174,2.240549248,NA,NA,310,35,<U+05D0><U+05D9><U+05E9><U+05D4>,TRUE
170,,NA,,NA,7,1.087,"<U+05DE><U+05D7><U+05D5><U+05D2><U+05D4>
",return,1.1888,4,0.3618,0,169,169,98,1,mekhoga.ogg,mekhoga,<U+05DE><U+05D7><U+05D5><U+05D2><U+05D4>,Object,0.115358345,NA,3,l,31,1.491361694,NA,NA,310,35,<U+05D0><U+05D9><U+05E9><U+05D4>,TRUE
171,,NA,,NA,6,1.2868,"<U+05E9><U+05DC><U+05D8>
",return,0.8458,4,0.3736,0,170,170,138,1,shelet.ogg,shelet,<U+05E9><U+05DC><U+05D8>,Object,0.072440922,NA,2,l,5670,3.753583059,NA,NA,310,35,<U+05D0><U+05D9><U+05E9><U+05D4>,TRUE
172,,NA,,NA,7,0.8983,"<U+05E2><U+05D5><U+05E8><U+05D1>
",return,0.695,3,0.3669,0,171,171,115,1,orev.ogg,orev,<U+05E2><U+05D5><U+05E8><U+05D1>,Animal,0.13908121,NA,2,a,438,2.641474111,NA,NA,310,35,<U+05D0><U+05D9><U+05E9><U+05D4>,TRUE
173,,NA,,NA,7,0.8376,"<U+05D2><U+05DE><U+05DC>
",return,0.7157,4,2.501,0,172,172,35,1,gamal.ogg,gamal,<U+05D2><U+05DE><U+05DC>,Animal,0.106346443,NA,2,a,791,2.898176483,NA,NA,310,35,<U+05D0><U+05D9><U+05E9><U+05D4>,TRUE
174,,NA,,NA,3,7.0321,"<U+05E7><U+05D8><U+05DC><U+05DF>
",return,1.6402,4,0.2515,0,173,173,48,1,katlan.ogg,katlan,<U+05E7><U+05D8><U+05DC><U+05DF>,Animal,0.113267794,NA,3,a,208,2.318063335,NA,NA,310,35,<U+05D0><U+05D9><U+05E9><U+05D4>,TRUE
175,,NA,,NA,7,1.0173,"<U+05D0><U+05D9><U+05D9><U+05DC><U+05D4>
",return,0.841,4,0.5704,0,174,174,13,1,ayala.ogg,ayala,<U+05D0><U+05D9><U+05D9><U+05DC><U+05D4>,Animal,0.114140168,NA,3,a,406,2.608526034,NA,NA,310,35,<U+05D0><U+05D9><U+05E9><U+05D4>,TRUE
176,,NA,,NA,5,2.2061,"<U+05D8><U+05DC><U+05D4>
",return,0.8982,5,0.8079,0,175,175,149,1,tale.ogg,tale,<U+05D8><U+05DC><U+05D4>,Animal,0.127517581,NA,2,a,239,2.378397901,NA,NA,310,35,<U+05D0><U+05D9><U+05E9><U+05D4>,TRUE
177,,NA,,NA,7,0.8506,"<U+05E7><U+05D5><U+05E4><U+05E1><U+05D4>
",return,0.994,4,0.4008,0,176,176,77,1,kufsa.ogg,kufsa,<U+05E7><U+05D5><U+05E4><U+05E1><U+05D4>,Object,0.098435864,NA,2,l,556,2.745074792,NA,NA,310,35,<U+05D0><U+05D9><U+05E9><U+05D4>,TRUE
178,,NA,,NA,7,1.1837,"<U+05D5><U+05D9><U+05E8><U+05D5><U+05E1>
",return,1.2136,1,0.3417,0,177,177,167,1,virus.ogg,virus,<U+05D5><U+05D9><U+05E8><U+05D5><U+05E1>,Animal,0.070612773,NA,2,a,897,2.952792443,NA,NA,310,35,<U+05D0><U+05D9><U+05E9><U+05D4>,TRUE
179,,NA,,NA,7,1.1183,"<U+05DE><U+05E0><U+05D5><U+05E8><U+05D4>
",return,0.8429,4,0.2565,0,178,178,99,1,menora.ogg,menora,<U+05DE><U+05E0><U+05D5><U+05E8><U+05D4>,Object,0.109452769,NA,3,l,578,2.761927838,NA,NA,310,35,<U+05D0><U+05D9><U+05E9><U+05D4>,TRUE
180,,NA,,NA,7,1.1408,"<U+05D0><U+05E7><U+05D3><U+05D7>
",return,0.8587,4,0.5849,0,179,179,31,1,ekdakh.ogg,ekdakh,<U+05D0><U+05E7><U+05D3><U+05D7>,Object,0.176758349,NA,2,l,1499,3.175801633,NA,NA,310,35,<U+05D0><U+05D9><U+05E9><U+05D4>,TRUE
181,space,1.3208,space,2.1003,5,3.328,"<U+05D9><U+05D2><U+05D5><U+05D0><U+05E8>
",return,6.6741,7,2.9517,0,0,0,171,1,yaguar.ogg,yaguar,<U+05D9><U+05D2><U+05D5><U+05D0><U+05E8>,Animal,0.099110015,NA,3,a,279,2.445604203,NA,NA,311,24,<U+05D2><U+05D1><U+05E8>,TRUE
182,,NA,,NA,7,2.2026,"<U+05EA><U+05DE><U+05E0><U+05D5><U+05DF>
",return,5.8171,5,2.9178,0,1,1,150,1,tamnun.ogg,tamnun,<U+05EA><U+05DE><U+05E0><U+05D5><U+05DF>,Animal,0.109244198,NA,2,a,186,2.269512944,NA,NA,311,24,<U+05D2><U+05D1><U+05E8>,TRUE
183,,NA,,NA,5,3.3024,"<U+05D7><U+05DC><U+05E7><U+05D9><U+05DD>
",return,3.8591,5,3.7176,0,2,2,57,1,kharakim.ogg,kharakim,<U+05D7><U+05E8><U+05E7><U+05D9><U+05DD>,Animal,0.112992086,NA,3,a,2428,3.385248682,NA,NA,311,24,<U+05D2><U+05D1><U+05E8>,FALSE
184,,NA,,NA,3,5.3299,"<U+05D9><U+05E2><U+05DC>
",return,2.9482,6,1.6858,0,3,3,170,1,yaen.ogg,yaen,<U+05D9><U+05E2><U+05DF>,Animal,0.100202575,NA,2,a,204,2.309630167,NA,NA,311,24,<U+05D2><U+05D1><U+05E8>,FALSE
185,,NA,,NA,7,2.7919,"<U+05DE><U+05E1><U+05DB><U+05D4>
",return,4.4393,7,1.3853,0,4,4,92,1,masekha.ogg,masekha,<U+05DE><U+05E1><U+05DB><U+05D4>,Object,0.096281089,NA,3,l,318,2.50242712,NA,NA,311,24,<U+05D2><U+05D1><U+05E8>,TRUE
186,,NA,,NA,7,3.0836,"<U+05E7><U+05E8><U+05E0><U+05E3>
",return,3.5917,5,2.1205,0,5,5,46,1,karnaf.ogg,karnaf,<U+05E7><U+05E8><U+05E0><U+05E3>,Animal,0.147574842,NA,2,a,312,2.494154594,NA,NA,311,24,<U+05D2><U+05D1><U+05E8>,TRUE
187,,NA,,NA,7,1.9086,"<U+05DE><U+05DC><U+05D5><U+05DF>
",return,7.467,7,2.3583,0,6,6,16,1,balon.ogg,balon,<U+05D1><U+05DC><U+05D5><U+05DF>,Object,0.111855216,NA,2,l,443,2.646403726,NA,NA,311,24,<U+05D2><U+05D1><U+05E8>,FALSE
188,,NA,,NA,7,4.6428,"<U+05E1><U+05E4><U+05DC>
",return,3.7252,7,1.4037,0,7,7,130,1,sefel.ogg,sefel,<U+05E1><U+05E4><U+05DC>,Object,0.068504706,NA,2,l,121,2.08278537,NA,NA,311,24,<U+05D2><U+05D1><U+05E8>,TRUE
189,,NA,,NA,7,2.049,"<U+05E7><U+05D5><U+05E4><U+05E1><U+05D4>
",return,5.4984,7,1.4015,0,8,8,77,1,kufsa.ogg,kufsa,<U+05E7><U+05D5><U+05E4><U+05E1><U+05D4>,Object,0.098435864,NA,2,l,556,2.745074792,NA,NA,311,24,<U+05D2><U+05D1><U+05E8>,TRUE
190,,NA,,NA,7,1.9514,"<U+05D9><U+05D3><U+05D9><U+05EA>
",return,4.4692,6,1.2422,0,9,9,168,1,yadit.ogg,yadit,<U+05D9><U+05D3><U+05D9><U+05EA>,Object,0.107020855,NA,2,l,544,2.7355989,NA,NA,311,24,<U+05D2><U+05D1><U+05E8>,TRUE
191,,NA,,NA,7,2.4505,"<U+05E2><U+05D8><U+05DC><U+05E3>
",return,6.8527,3,1.6379,0,10,10,11,1,atalef.ogg,atalef,<U+05E2><U+05D8><U+05DC><U+05E3>,Animal,0.084217779,NA,3,a,507,2.705007959,NA,NA,311,24,<U+05D2><U+05D1><U+05E8>,TRUE
192,,NA,,NA,2,3.6341,"<U+05D8><U+05D9><U+05E8><U+05D4>
",return,13.623,7,1.5757,0,11,11,26,1,dira.ogg,dira,<U+05D3><U+05D9><U+05E8><U+05D4>,Object,0.093515851,NA,2,l,1560,3.193124598,NA,NA,311,24,<U+05D2><U+05D1><U+05E8>,FALSE
193,,NA,,NA,7,2.4165,"<U+05D2><U+05DC><U+05D2><U+05DC>
",return,2.907,5,1.3081,0,12,12,34,1,galgal.ogg,galgal,<U+05D2><U+05DC><U+05D2><U+05DC>,Object,0.148542315,NA,2,l,1839,3.264581729,NA,NA,311,24,<U+05D2><U+05D1><U+05E8>,TRUE
194,,NA,,NA,7,1.8717,"<U+05E6><U+05E4><U+05E8><U+05D3><U+05E2>
",return,4.3249,3,1.6872,0,13,13,163,1,tzfardea.ogg,tzfardea,<U+05E6><U+05E4><U+05E8><U+05D3><U+05E2>,Animal,0.157518089,NA,3,a,484,2.684845362,NA,NA,311,24,<U+05D2><U+05D1><U+05E8>,TRUE
195,,NA,,NA,7,2.0451,"<U+05D0><U+05D9><U+05D9><U+05DC><U+05D4>
",return,2.2702,7,1.0697,0,14,14,13,1,ayala.ogg,ayala,<U+05D0><U+05D9><U+05D9><U+05DC><U+05D4>,Animal,0.114140168,NA,3,a,406,2.608526034,NA,NA,311,24,<U+05D2><U+05D1><U+05E8>,TRUE
196,,NA,,NA,2,2.208,"<U+05DE><U+05D2><U+05DC><U+05E9><U+05D4>
",return,3.2306,7,1.4283,0,15,15,83,1,maglesha.ogg,maglesha,<U+05DE><U+05D2><U+05DC><U+05E9><U+05D4>,Object,0.116013341,NA,3,l,29,1.462397998,NA,NA,311,24,<U+05D2><U+05D1><U+05E8>,TRUE
197,,NA,,NA,7,1.4578,"<U+05DB><U+05E4><U+05E4><U+05D4>
",return,2.1026,7,1.7529,0,16,16,52,1,kfafa.ogg,kfafa,<U+05DB><U+05E4><U+05E4><U+05D4>,Object,0.159954116,NA,2,l,102,2.008600172,NA,NA,311,24,<U+05D2><U+05D1><U+05E8>,TRUE
198,,NA,,NA,7,1.5592,"<U+05D7><U+05EA><U+05D5><U+05DC>
",return,10.7035,5,1.8371,0,17,17,61,1,khatul.ogg,khatul,<U+05D7><U+05EA><U+05D5><U+05DC>,Animal,0.10725911,NA,2,a,2320,3.365487985,NA,NA,311,24,<U+05D2><U+05D1><U+05E8>,TRUE
199,,NA,,NA,7,1.8859,"<U+05E0><U+05DE><U+05E8>
",return,2.7319,3,0.9885,0,18,18,111,1,namer.ogg,namer,<U+05E0><U+05DE><U+05E8>,Animal,0.093454249,NA,2,a,869,2.939019776,NA,NA,311,24,<U+05D2><U+05D1><U+05E8>,TRUE
200,,NA,,NA,7,1.7349,"<U+05D0><U+05D5><U+05D2><U+05E8>
",return,1.765,6,0.4079,0,19,19,114,1,oger.ogg,oger,<U+05D0><U+05D5><U+05D2><U+05E8>,Animal,0.10658478,NA,2,a,316,2.499687083,NA,NA,311,24,<U+05D2><U+05D1><U+05E8>,TRUE
201,,NA,,NA,6,2.1568,"<U+05D1><U+05D5><U+05E8><U+05D2>
",return,3.1275,4,1.6146,0,20,20,21,1,boreg.ogg,boreg,<U+05D1><U+05D5><U+05E8><U+05D2>,Object,0.123916112,NA,2,l,1630,3.212187604,NA,NA,311,24,<U+05D2><U+05D1><U+05E8>,TRUE
202,,NA,,NA,7,1.8191,"<U+05D7><U+05E8><U+05D3><U+05D5><U+05DF>
",return,4.2152,5,1.7374,0,21,21,58,1,khardon.ogg,khardon,<U+05D7><U+05E8><U+05D3><U+05D5><U+05DF>,Animal,0.114361823,NA,2,a,148,2.170261715,NA,NA,311,24,<U+05D2><U+05D1><U+05E8>,TRUE
203,,NA,,NA,7,1.9333,"<U+05D0><U+05E8><U+05DE><U+05D3><U+05D9><U+05DC>
",return,3.1136,7,1.3379,0,22,22,8,1,armedil.ogg,armedil,<U+05D0><U+05E8><U+05DE><U+05D3><U+05D9><U+05DC>,Animal,0.108348459,NA,3,a,153,2.184691431,NA,NA,311,24,<U+05D2><U+05D1><U+05E8>,TRUE
204,,NA,,NA,3,2.5522,"<U+05D4><U+05D9><U+05E4><U+05D5><U+05DF>
",return,3.8905,5,0.8686,0,23,23,40,1,iton.ogg,iton,<U+05E2><U+05D9><U+05EA><U+05D5><U+05DF>,Object,0.097421117,NA,2,l,5979,3.776628553,NA,NA,311,24,<U+05D2><U+05D1><U+05E8>,FALSE
205,,NA,,NA,7,1.9873,"<U+05D7><U+05E1><U+05D9><U+05D3><U+05D4>
",return,2.4429,7,1.4028,0,24,24,60,1,khasida.ogg,khasida,<U+05D7><U+05E1><U+05D9><U+05D3><U+05D4>,Animal,0.110862873,NA,3,a,192,2.283301229,NA,NA,311,24,<U+05D2><U+05D1><U+05E8>,TRUE
206,,NA,,NA,7,1.7856,"<U+05E4><U+05D9><U+05E0><U+05D2><U+05D5><U+05D5><U+05D9><U+05DF>
",return,4.1974,7,1.0553,0,25,25,121,1,pinguin.ogg,pinguin,<U+05E4><U+05D9><U+05E0><U+05D2><U+05D5><U+05D5><U+05D9><U+05DF>,Animal,0.16885522,NA,3,a,445,2.648360011,NA,NA,311,24,<U+05D2><U+05D1><U+05E8>,TRUE
207,,NA,,NA,7,1.7044,"<U+05E7><U+05E2><U+05E8><U+05D4>
",return,2.9314,3,2.5512,0,26,26,49,1,keara.ogg,keara,<U+05E7><U+05E2><U+05E8><U+05D4>,Object,0.089686304,NA,3,l,193,2.285557309,NA,NA,311,24,<U+05D2><U+05D1><U+05E8>,TRUE
208,,NA,,NA,7,2.2505,<U+05E4><U+05D5><U+05DE><U+05D4>,return,6.2436,2,0.9902,0,27,27,122,1,puma.ogg,puma,<U+05E4><U+05D5><U+05DE><U+05D4>,Animal,0.10772679,NA,2,a,242,2.383815366,NA,NA,311,24,<U+05D2><U+05D1><U+05E8>,TRUE
209,,NA,,NA,7,1.8706,"<U+05E9><U+05D5><U+05DC><U+05D7><U+05DF>
",return,4.5436,4,1.6589,0,28,28,141,1,shulkhan.ogg,shulkhan,<U+05E9><U+05D5><U+05DC><U+05D7><U+05DF>,Object,0.088036194,NA,2,l,3099,3.491221576,NA,NA,311,24,<U+05D2><U+05D1><U+05E8>,TRUE
210,,NA,,NA,7,2.0822,"<U+05E2><U+05E7><U+05E8><U+05D1>
",return,4.6519,1,0.3571,0,29,29,4,1,akrav.ogg,akrav,<U+05E2><U+05E7><U+05E8><U+05D1>,Animal,0.109148823,NA,2,a,269,2.42975228,NA,NA,311,24,<U+05D2><U+05D1><U+05E8>,TRUE
211,,NA,,NA,7,5.1676,"<U+05E9><U+05DE><U+05D9><U+05DB><U+05D4>
",return,3.1982,7,1.1181,0,30,30,145,1,smikha.ogg,smikha,<U+05E9><U+05DE><U+05D9><U+05DB><U+05D4>,Object,0.105214648,NA,2,l,143,2.155336037,NA,NA,311,24,<U+05D2><U+05D1><U+05E8>,TRUE
212,,NA,,NA,7,1.7842,"<U+05DB><U+05E4><U+05EA><U+05D5><U+05E8>
",return,4.9485,4,1.2728,0,31,31,42,1,kaftor.ogg,kaftor,<U+05DB><U+05E4><U+05EA><U+05D5><U+05E8>,Object,0.060227305,NA,2,l,1513,3.179838928,NA,NA,311,24,<U+05D2><U+05D1><U+05E8>,TRUE
213,,NA,,NA,7,2.0295,"<U+05E1><U+05E8><U+05D2><U+05DC>
",return,2.2253,4,4.0218,0,32,32,129,1,sargel.ogg,sargel,<U+05E1><U+05E8><U+05D2><U+05DC>,Object,0.102812193,NA,2,l,532,2.725911632,NA,NA,311,24,<U+05D2><U+05D1><U+05E8>,TRUE
214,,NA,,NA,7,1.9344,"<U+05E9><U+05DE><U+05E4><U+05D5>
",return,2.8083,7,2.5687,0,33,33,135,1,shampo.ogg,shampo,<U+05E9><U+05DE><U+05E4><U+05D5>,Object,0.100922048,NA,2,l,90,1.954242509,NA,NA,311,24,<U+05D2><U+05D1><U+05E8>,TRUE
215,,NA,,NA,7,1.6881,"<U+05EA><U+05D9><U+05D1><U+05D4>
",return,1.8252,6,1.2677,0,34,34,153,1,teyva.ogg,teyva,<U+05EA><U+05D9><U+05D1><U+05D4>,Object,0.124722831,NA,2,l,627,2.797267541,NA,NA,311,24,<U+05D2><U+05D1><U+05E8>,TRUE
216,,NA,,NA,7,1.6957,<U+05D1><U+05E8><U+05D5><U+05D5><U+05D6>,return,7.8326,7,1.1843,0,35,35,18,1,barvaz.ogg,barvaz,<U+05D1><U+05E8><U+05D5><U+05D5><U+05D6>,Animal,0.108059518,NA,2,a,716,2.854913022,NA,NA,311,24,<U+05D2><U+05D1><U+05E8>,TRUE
217,,NA,,NA,7,1.6507,"<U+05D7><U+05D1><U+05DC>
",return,2.3892,4,0.7134,0,36,36,63,1,khevel.ogg,khevel,<U+05D7><U+05D1><U+05DC>,Object,0.089048877,NA,2,l,8454,3.927062243,NA,NA,311,24,<U+05D2><U+05D1><U+05E8>,TRUE
218,,NA,,NA,7,2.3001,"<U+05D7><U+05D6><U+05D9><U+05E8>
",return,2.5437,2,0.9303,0,37,37,62,1,khazir.ogg,khazir,<U+05D7><U+05D6><U+05D9><U+05E8>,Animal,0.058417033,NA,2,a,1601,3.204391332,NA,NA,311,24,<U+05D2><U+05D1><U+05E8>,TRUE
219,,NA,,NA,7,1.4842,"<U+05E0><U+05DE><U+05DC><U+05D4>
",return,4.3068,4,1.1444,0,38,38,112,1,nemala.ogg,nemala,<U+05E0><U+05DE><U+05DC><U+05D4>,Animal,0.120624721,NA,3,a,264,2.421603927,NA,NA,311,24,<U+05D2><U+05D1><U+05E8>,TRUE
220,,NA,,NA,7,1.7531,<U+05E7><U+05E8><U+05E6><U+05D9><U+05D4>,return,2.8142,1,1.3502,0,39,39,47,1,kartziya.ogg,kartziya,<U+05E7><U+05E8><U+05E6><U+05D9><U+05D4>,Animal,0.095871754,NA,3,a,24,1.380211242,NA,NA,311,24,<U+05D2><U+05D1><U+05E8>,TRUE
221,,NA,,NA,7,1.9668,"<U+05DB><U+05D9><U+05E0><U+05D4>
",return,2.8431,1,0.5617,0,40,40,69,1,kina.ogg,kina,<U+05DB><U+05D9><U+05E0><U+05D4>,Animal,0.063055128,NA,2,a,3145,3.49762065,NA,NA,311,24,<U+05D2><U+05D1><U+05E8>,TRUE
222,,NA,,NA,7,2.0869,"<U+05E7><U+05D9><U+05E4><U+05D5><U+05D3>
",return,3.1675,2,1.134,0,41,41,70,1,kipod.ogg,kipod,<U+05E7><U+05D9><U+05E4><U+05D5><U+05D3>,Animal,0.123448588,NA,2,a,373,2.571708832,NA,NA,311,24,<U+05D2><U+05D1><U+05E8>,TRUE
223,,NA,,NA,7,1.8239,"<U+05D7><U+05D5><U+05DC><U+05E6><U+05D4>
",return,12.5585,6,1.4953,0,42,42,68,1,khultza.ogg,khultza,<U+05D7><U+05D5><U+05DC><U+05E6><U+05D4>,Object,0.121153131,NA,2,l,832,2.920123326,NA,NA,311,24,<U+05D2><U+05D1><U+05E8>,TRUE
224,,NA,,NA,7,1.8262,"<U+05E0><U+05D7><U+05E9>
",return,2.6198,1,0.1182,0,43,43,110,1,nakhash.ogg,nakhash,<U+05E0><U+05D7><U+05E9>,Animal,0.088418685,NA,2,a,1825,3.261262869,NA,NA,311,24,<U+05D2><U+05D1><U+05E8>,TRUE
225,,NA,,NA,7,1.8192,"<U+05E2><U+05DB><U+05D1><U+05E8>
",return,3.0915,1,0.3677,0,44,44,2,1,akhbar.ogg,akhbar,<U+05E2><U+05DB><U+05D1><U+05E8>,Animal,0.105947159,NA,2,a,800,2.903089987,NA,NA,311,24,<U+05D2><U+05D1><U+05E8>,TRUE
226,,NA,,NA,7,1.7354,"<U+05DE><U+05E9><U+05D7><U+05D4>
",return,2.3265,7,0.3508,0,45,45,104,1,mishkha.ogg,mishkha,<U+05DE><U+05E9><U+05D7><U+05D4>,Object,0.112146221,NA,2,l,430,2.633468456,NA,NA,311,24,<U+05D2><U+05D1><U+05E8>,TRUE
227,,NA,,NA,7,1.7846,"<U+05E6><U+05E4><U+05E2>
",return,2.1074,1,0.3708,0,46,46,162,1,tzefa.ogg,tzefa,<U+05E6><U+05E4><U+05E2>,Animal,0.114869006,NA,2,a,225,2.352182518,NA,NA,311,24,<U+05D2><U+05D1><U+05E8>,TRUE
228,,NA,,NA,7,1.6043,"<U+05E8><U+05DB><U+05D1>
",return,1.6006,7,0.9834,0,47,47,124,1,rekhev.ogg,rekhev,<U+05E8><U+05DB><U+05D1>,Object,0.117218629,NA,2,l,8546,3.931762888,NA,NA,311,24,<U+05D2><U+05D1><U+05E8>,TRUE
229,,NA,,NA,7,1.7391,"<U+05E7><U+05D8><U+05DC><U+05DF>
",return,2.4195,1,0.1342,0,48,48,48,1,katlan.ogg,katlan,<U+05E7><U+05D8><U+05DC><U+05DF>,Animal,0.113267794,NA,3,a,208,2.318063335,NA,NA,311,24,<U+05D2><U+05D1><U+05E8>,TRUE
230,,NA,,NA,7,2.6178,"<U+05E9><U+05E4><U+05DF>
",return,1.883,6,0.8785,0,49,49,134,1,shafan.ogg,shafan,<U+05E9><U+05E4><U+05DF>,Animal,0.087025575,NA,2,a,184,2.264817823,NA,NA,311,24,<U+05D2><U+05D1><U+05E8>,TRUE
231,,NA,,NA,7,1.6592,"<U+05E4><U+05DC><U+05DE><U+05D9><U+05E0><U+05D2><U+05D5>
",return,3.8665,7,0.8764,0,50,50,32,1,flamingo.ogg,flamingo,<U+05E4><U+05DC><U+05DE><U+05D9><U+05E0><U+05D2><U+05D5>,Animal,0.109668776,NA,3,a,145,2.161368002,NA,NA,311,24,<U+05D2><U+05D1><U+05E8>,TRUE
232,,NA,,NA,7,1.2005,"<U+05DB><U+05D3><U+05D5><U+05E8>
",return,1.9537,7,0.6946,0,51,51,41,1,kadur.ogg,kadur,<U+05DB><U+05D3><U+05D5><U+05E8>,Object,0.092520744,NA,2,l,15796,4.198547125,NA,NA,311,24,<U+05D2><U+05D1><U+05E8>,TRUE
233,,NA,,NA,7,1.5577,"<U+05E2><U+05DB><U+05D1><U+05E8><U+05D5><U+05E9>
",return,3.2271,1,0.2206,0,52,52,3,1,akhbarosh.ogg,akhbarosh,<U+05E2><U+05DB><U+05D1><U+05E8><U+05D5><U+05E9>,Animal,0.114850186,NA,3,a,143,2.155336037,NA,NA,311,24,<U+05D2><U+05D1><U+05E8>,TRUE
234,,NA,,NA,7,1.6434,"<U+05DB><U+05D1><U+05E9><U+05D4>
",return,17.4867,6,1.8837,0,53,53,72,1,kivsa.ogg,kivsa,<U+05DB><U+05D1><U+05E9><U+05D4>,Animal,0.12512663,NA,2,a,2062,3.314288661,NA,NA,311,24,<U+05D2><U+05D1><U+05E8>,TRUE
235,,NA,,NA,2,2.25,"<U+05D0><U+05E7><U+05D3><U+05D7>
",return,4.2165,1,1.1675,0,54,54,31,1,ekdakh.ogg,ekdakh,<U+05D0><U+05E7><U+05D3><U+05D7>,Object,0.176758349,NA,2,l,1499,3.175801633,NA,NA,311,24,<U+05D2><U+05D1><U+05E8>,TRUE
236,,NA,,NA,7,2.3899,"<U+05DE><U+05E1><U+05DE><U+05E8>
",return,1.7816,4,0.551,0,55,55,94,1,masmer.ogg,masmer,<U+05DE><U+05E1><U+05DE><U+05E8>,Object,0.113393702,NA,2,l,197,2.294466226,NA,NA,311,24,<U+05D2><U+05D1><U+05E8>,TRUE
237,,NA,,NA,7,1.834,"<U+05D0><U+05E4><U+05E8><U+05D5><U+05D7>
",return,3.1003,7,0.4674,0,56,56,30,1,efroakh.ogg,efroakh,<U+05D0><U+05E4><U+05E8><U+05D5><U+05D7>,Animal,0.116828218,NA,3,a,54,1.73239376,NA,NA,311,24,<U+05D2><U+05D1><U+05E8>,TRUE
238,,NA,,NA,7,1.7351,"<U+05E9><U+05D5><U+05DE><U+05DF>
",return,1.824,1,0.3587,0,57,57,142,1,shuman.ogg,shuman,<U+05E9><U+05D5><U+05DE><U+05DF>,Object,0.076844811,NA,2,l,1865,3.270678836,NA,NA,311,24,<U+05D2><U+05D1><U+05E8>,TRUE
239,,NA,,NA,7,1.5011,"<U+05D7><U+05D2><U+05D1>
",return,2.949,3,0.9893,0,58,58,53,1,khagav.ogg,khagav,<U+05D7><U+05D2><U+05D1>,Animal,0.112923481,NA,2,a,37,1.568201724,NA,NA,311,24,<U+05D2><U+05D1><U+05E8>,TRUE
240,,NA,,NA,7,1.6361,"<U+05DE><U+05D9><U+05E7><U+05E1><U+05E8>
",return,2.5004,6,0.6114,0,59,59,103,1,mikser.ogg,mikser,<U+05DE><U+05D9><U+05E7><U+05E1><U+05E8>,Object,0.084246255,NA,2,l,39,1.591064607,NA,NA,311,24,<U+05D2><U+05D1><U+05E8>,TRUE
241,,NA,,NA,7,1.4748,"<U+05E9><U+05D1><U+05DC><U+05D5><U+05DC>
",return,2.6335,3,1.792,0,60,60,133,1,shablul.ogg,shablul,<U+05E9><U+05D1><U+05DC><U+05D5><U+05DC>,Animal,0.137633026,NA,2,a,259,2.413299764,NA,NA,311,24,<U+05D2><U+05D1><U+05E8>,TRUE
242,,NA,,NA,7,1.6276,"<U+05E9><U+05E2><U+05E8>
",return,1.5023,5,0.2092,0,61,61,132,1,shaar.ogg,shaar,<U+05E9><U+05E2><U+05E8>,Object,0.120827317,NA,2,l,18280,4.261976191,NA,NA,311,24,<U+05D2><U+05D1><U+05E8>,TRUE
243,,NA,,NA,7,1.7174,"<U+05EA><U+05D9><U+05E9>
",return,1.8857,3,0.8343,0,62,62,152,1,tayish.ogg,tayish,<U+05EA><U+05D9><U+05E9>,Animal,0.128700748,NA,2,a,103,2.012837225,NA,NA,311,24,<U+05D2><U+05D1><U+05E8>,TRUE
244,,NA,,NA,7,1.6672,"<U+05D7><U+05E8><U+05D2><U+05D5><U+05DC>
",return,5.1832,3,1.001,0,63,63,59,1,khargol.ogg,khargol,<U+05D7><U+05E8><U+05D2><U+05D5><U+05DC>,Animal,0.126346096,NA,2,a,94,1.973127854,NA,NA,311,24,<U+05D2><U+05D1><U+05E8>,TRUE
245,,NA,,NA,7,1.736,"<U+05E9><U+05DC><U+05D3>
",return,3.2904,3,1.201,0,64,64,138,1,shelet.ogg,shelet,<U+05E9><U+05DC><U+05D8>,Object,0.072440922,NA,2,l,5670,3.753583059,NA,NA,311,24,<U+05D2><U+05D1><U+05E8>,FALSE
246,,NA,,NA,7,1.7446,"<U+05E2><U+05DC><U+05D5><U+05E7><U+05D4>
",return,3.9002,1,0.1676,0,65,65,6,1,aluka.ogg,aluka,<U+05E2><U+05DC><U+05D5><U+05E7><U+05D4>,Animal,0.133438632,NA,3,a,49,1.69019608,NA,NA,311,24,<U+05D2><U+05D1><U+05E8>,TRUE
247,,NA,,NA,6,2.0607,"<U+05E4><U+05E8><U+05E2><U+05D5><U+05E9>
",return,2.4328,1,0.2697,0,66,66,118,1,parosh.ogg,parosh,<U+05E4><U+05E8><U+05E2><U+05D5><U+05E9>,Animal,0.103216074,NA,2,a,40,1.602059991,NA,NA,311,24,<U+05D2><U+05D1><U+05E8>,TRUE
248,,NA,,NA,3,1.7834,"<U+05E9><U+05DE><U+05DE><U+05D9><U+05EA>
",return,2.8583,2,0.7679,0,67,67,144,1,smamit.ogg,smamit,<U+05E9><U+05DE><U+05DE><U+05D9><U+05EA>,Animal,0.104532413,NA,2,a,89,1.949390007,NA,NA,311,24,<U+05D2><U+05D1><U+05E8>,TRUE
249,,NA,,NA,7,1.5169,"<U+05E1><U+05D5><U+05DC><U+05DD>
",return,2.1271,7,1.3178,0,68,68,147,1,sulam.ogg,sulam,<U+05E1><U+05D5><U+05DC><U+05DD>,Object,0.109472513,NA,2,l,1593,3.202215776,NA,NA,311,24,<U+05D2><U+05D1><U+05E8>,TRUE
250,,NA,,NA,7,1.7258,"<U+05DE><U+05E7><U+05E7>
",return,1.3759,1,0.045,0,69,69,84,1,makak.ogg,makak,<U+05DE><U+05E7><U+05E7>,Animal,0.090016395,NA,2,a,33,1.51851394,NA,NA,311,24,<U+05D2><U+05D1><U+05E8>,TRUE
251,,NA,,NA,7,1.9005,"<U+05E1><U+05DB><U+05D9><U+05DF>
",return,2.0194,1,0.1101,0,70,70,126,1,sakin.ogg,sakin,<U+05E1><U+05DB><U+05D9><U+05DF>,Object,0.089768395,NA,2,l,1042,3.017867719,NA,NA,311,24,<U+05D2><U+05D1><U+05E8>,TRUE
252,,NA,,NA,7,1.7393,"<U+05DE><U+05D7><U+05E9><U+05D1>
",return,2.5018,7,0.7329,0,71,71,87,1,makhshev.ogg,makhshev,<U+05DE><U+05D7><U+05E9><U+05D1>,Object,0.112244941,NA,2,l,7379,3.86799751,NA,NA,311,24,<U+05D2><U+05D1><U+05E8>,TRUE
253,,NA,,NA,3,2.1372,"<U+05E8><U+05E2><U+05DC>
",return,3.6138,1,0.1592,0,72,72,123,1,raal.ogg,raal,<U+05E8><U+05E2><U+05DC>,Object,0.129405722,NA,2,l,596,2.77524626,NA,NA,311,24,<U+05D2><U+05D1><U+05E8>,TRUE
254,,NA,,NA,6,1.5364,<U+05D0><U+05D6><U+05E0><U+05D9><U+05D4>,return,3.4736,7,0.6178,0,73,73,116,1,ozniya.ogg,ozniya,<U+05D0><U+05D6><U+05E0><U+05D9><U+05D4>,Object,0.103960767,NA,3,l,27,1.431363764,NA,NA,311,24,<U+05D2><U+05D1><U+05E8>,TRUE
255,,NA,,NA,7,1.3407,"<U+05D3><U+05D5><U+05DC><U+05E4><U+05D9><U+05DF>
",return,6.5158,7,0.3834,0,74,74,27,1,dolfin.ogg,dolfin,<U+05D3><U+05D5><U+05DC><U+05E4><U+05D9><U+05DF>,Animal,0.076715685,NA,2,a,754,2.877371346,NA,NA,311,24,<U+05D2><U+05D1><U+05E8>,TRUE
256,,NA,,NA,7,0.9552,"<U+05DB><U+05E1><U+05D0>
",return,4.3681,7,1.0003,0,75,75,71,1,kise.ogg,kise,<U+05DB><U+05D9><U+05E1><U+05D0>,Object,0.091946796,NA,2,l,1321,3.120902818,NA,NA,311,24,<U+05D2><U+05D1><U+05E8>,FALSE
257,,NA,,NA,7,1.3842,"<U+05D1><U+05E8><U+05D1><U+05D5><U+05E8>
",return,3.5605,7,1.4364,0,76,76,17,1,barbur.ogg,barbur,<U+05D1><U+05E8><U+05D1><U+05D5><U+05E8>,Animal,0.092549652,NA,2,a,329,2.517195898,NA,NA,311,24,<U+05D2><U+05D1><U+05E8>,TRUE
258,,NA,,NA,7,1.7844,"<U+05E6><U+05D5><U+05D0><U+05D4>
",return,1.8996,3,0.5848,0,77,77,166,1,tzoa.ogg,tzoa,<U+05E6><U+05D5><U+05D0><U+05D4>,Object,0.143895417,NA,2,l,332,2.521138084,NA,NA,311,24,<U+05D2><U+05D1><U+05E8>,TRUE
259,,NA,,NA,7,1.2512,"<U+05EA><U+05E0><U+05E9><U+05DE><U+05EA>
",return,11.7925,4,0.4564,0,78,78,156,1,tinshemet.ogg,tinshemet,<U+05EA><U+05E0><U+05E9><U+05DE><U+05EA>,Animal,0.11601489,NA,3,a,61,1.785329835,NA,NA,311,24,<U+05D2><U+05D1><U+05E8>,TRUE
260,,NA,,NA,7,1.7169,<U+05E9><U+05EA><U+05DF>,return,2.7173,3,0.1274,0,79,79,139,1,sheten.ogg,sheten,<U+05E9><U+05EA><U+05DF>,Object,0.061768442,NA,2,l,788,2.896526217,NA,NA,311,24,<U+05D2><U+05D1><U+05E8>,TRUE
261,,NA,,NA,5,1.5873,<U+05E7><U+05E8><U+05E9>,return,3.8923,5,1.4835,0,80,80,51,1,keresh.ogg,keresh,<U+05E7><U+05E8><U+05E9>,Object,0.085953034,NA,2,l,284,2.45331834,NA,NA,311,24,<U+05D2><U+05D1><U+05E8>,TRUE
262,,NA,,NA,7,1.5669,<U+05E7><U+05D5><U+05D0><U+05DC><U+05D4>,return,3.6833,7,0.3345,0,81,81,75,1,koala.ogg,koala,<U+05E7><U+05D5><U+05D0><U+05DC><U+05D4>,Animal,0.06763202,NA,3,a,125,2.096910013,NA,NA,311,24,<U+05D2><U+05D1><U+05E8>,TRUE
263,,NA,,NA,7,1.4348,"<U+05DE><U+05D9><U+05D8><U+05D4>
",return,4.6923,7,1.1943,0,82,82,105,1,mita.ogg,mita,<U+05DE><U+05D9><U+05D8><U+05D4>,Object,0.103846908,NA,2,l,497,2.696356389,NA,NA,311,24,<U+05D2><U+05D1><U+05E8>,TRUE
264,,NA,,NA,7,1.1671,"<U+05DE><U+05D1><U+05E8><U+05E9><U+05EA>
",return,3.8177,7,1.3088,0,83,83,107,1,mivreshet.ogg,mivreshet,<U+05DE><U+05D1><U+05E8><U+05E9><U+05EA>,Object,0.149914548,NA,3,l,224,2.350248018,NA,NA,311,24,<U+05D2><U+05D1><U+05E8>,TRUE
265,,NA,,NA,7,1.7579,"<U+05DB><U+05DC><U+05D5><U+05D1>
",return,1.9816,1,0.0879,0,84,84,74,1,kluv.ogg,kluv,<U+05DB><U+05DC><U+05D5><U+05D1>,Object,0.114783913,NA,2,l,481,2.682145076,NA,NA,311,24,<U+05D2><U+05D1><U+05E8>,TRUE
266,,NA,,NA,7,1.667,"<U+05D7><U+05D2><U+05D5><U+05E8><U+05D4>
",return,4.9371,5,1.3506,0,85,85,54,1,khagora.ogg,khagora,<U+05D7><U+05D2><U+05D5><U+05E8><U+05D4>,Object,0.091309622,NA,3,l,411,2.613841822,NA,NA,311,24,<U+05D2><U+05D1><U+05E8>,TRUE
267,,NA,,NA,7,1.4339,"<U+05D9><U+05EA><U+05D5><U+05E9>
",return,3.7336,1,0.2734,0,86,86,174,1,yatush.ogg,yatush,<U+05D9><U+05EA><U+05D5><U+05E9>,Animal,0.086324573,NA,2,a,184,2.264817823,NA,NA,311,24,<U+05D2><U+05D1><U+05E8>,TRUE
268,,NA,,NA,7,1.7589,<U+05DC><U+05D5><U+05D5><U+05D9><U+05EA><U+05DF>,return,2.4995,3,0.6714,0,87,87,79,1,livyatan.ogg,livyatan,<U+05DC><U+05D5><U+05D5><U+05D9><U+05EA><U+05DF>,Animal,0.086291529,NA,3,a,211,2.324282455,NA,NA,311,24,<U+05D2><U+05D1><U+05E8>,TRUE
269,,NA,,NA,7,1.2039,"<U+05E9><U+05D5><U+05E2><U+05DC>
",return,2.023,3,0.4739,0,88,88,140,1,shual.ogg,shual,<U+05E9><U+05D5><U+05E2><U+05DC>,Animal,0.122284986,NA,2,a,844,2.926342447,NA,NA,311,24,<U+05D2><U+05D1><U+05E8>,TRUE
270,,NA,,NA,7,1.6342,"<U+05D6><U+05D0><U+05D1>
",return,3.0074,3,0.3277,0,89,89,177,1,zeev.ogg,zeev,<U+05D6><U+05D0><U+05D1>,Animal,0.120690554,NA,2,a,8288,3.918449742,NA,NA,311,24,<U+05D2><U+05D1><U+05E8>,TRUE
271,,NA,,NA,7,1.8019,<U+05E7><U+05DC><U+05E1><U+05E8>,return,2.7245,7,1.5719,0,90,90,73,1,klaser.ogg,klaser,<U+05E7><U+05DC><U+05E1><U+05E8>,Object,0.118595682,NA,2,l,23,1.361727836,NA,NA,311,24,<U+05D2><U+05D1><U+05E8>,TRUE
272,,NA,,NA,7,1.691,"<U+05D8><U+05DC><U+05D4>
",return,2.4848,5,0.1423,0,91,91,149,1,tale.ogg,tale,<U+05D8><U+05DC><U+05D4>,Animal,0.127517581,NA,2,a,239,2.378397901,NA,NA,311,24,<U+05D2><U+05D1><U+05E8>,TRUE
273,,NA,,NA,2,1.6599,"<U+05DE><U+05D8><U+05E2><U+05DF>
",return,1.8076,5,0.6835,0,92,92,106,1,mitan.ogg,mitan,<U+05DE><U+05D8><U+05E2><U+05DF>,Object,0.092752762,NA,2,l,3876,3.588383768,NA,NA,311,24,<U+05D2><U+05D1><U+05E8>,TRUE
274,,NA,,NA,7,1.9008,"<U+05D9><U+05E0><U+05E9><U+05D5><U+05E3>
",return,2.6997,2,0.2174,0,93,93,173,1,yanshuf.ogg,yanshuf,<U+05D9><U+05E0><U+05E9><U+05D5><U+05E3>,Animal,0.114506856,NA,2,a,368,2.565847819,NA,NA,311,24,<U+05D2><U+05D1><U+05E8>,TRUE
275,,NA,,NA,7,1.4842,"<U+05EA><U+05E0><U+05D9><U+05DF>
",return,7.2167,1,1.5379,0,94,94,151,1,tanin.ogg,tanin,<U+05EA><U+05E0><U+05D9><U+05DF>,Animal,0.11310944,NA,2,a,1005,3.002166062,NA,NA,311,24,<U+05D2><U+05D1><U+05E8>,TRUE
276,,NA,,NA,7,1.5669,"<U+05D1><U+05D5><U+05E0><U+05D4>
",return,2.2881,4,0.4681,0,95,95,20,1,bone.ogg,bone,<U+05D1><U+05D5><U+05E0><U+05D4>,Animal,0.109915785,NA,2,a,2950,3.469822016,NA,NA,311,24,<U+05D2><U+05D1><U+05E8>,TRUE
277,,NA,,NA,7,2.1742,"<U+05D7><U+05D9><U+05DC><U+05D6><U+05D5><U+05DF>
",return,3.9499,2,0.7011,0,96,96,64,1,khilazon.ogg,khilazon,<U+05D7><U+05D9><U+05DC><U+05D6><U+05D5><U+05DF>,Animal,0.087583728,NA,3,a,229,2.359835482,NA,NA,311,24,<U+05D2><U+05D1><U+05E8>,TRUE
278,,NA,,NA,7,1.8339,"<U+05D7><U+05D5><U+05E6><U+05E5>
",return,3.8751,6,1.5055,0,97,97,66,1,khotzetz.ogg,khotzetz,<U+05D7><U+05D5><U+05E6><U+05E5>,Object,0.089251935,NA,2,l,282,2.450249108,NA,NA,311,24,<U+05D2><U+05D1><U+05E8>,TRUE
279,,NA,,NA,4,1.9996,"<U+05D9><U+05DC><U+05E7><U+05D5><U+05D8>
",return,7.4325,7,1.2072,0,98,98,172,1,yalkut.ogg,yalkut,<U+05D9><U+05DC><U+05E7><U+05D5><U+05D8>,Object,0.094344929,NA,2,l,300,2.477121255,NA,NA,311,24,<U+05D2><U+05D1><U+05E8>,TRUE
280,,NA,,NA,7,1.6506,<U+05E9><U+05D8><U+05D9><U+05D7>,return,8.4091,5,0.6888,0,99,99,137,1,shatiakh.ogg,shatiakh,<U+05E9><U+05D8><U+05D9><U+05D7>,Object,0.113188751,NA,2,l,291,2.463892989,NA,NA,311,24,<U+05D2><U+05D1><U+05E8>,TRUE
281,,NA,,NA,7,1.8514,"<U+05D0><U+05E8><U+05E0><U+05D1>
",return,2.3362,7,0.9217,0,100,100,9,1,arnav.ogg,arnav,<U+05D0><U+05E8><U+05E0><U+05D1>,Animal,0.118283436,NA,2,a,404,2.606381365,NA,NA,311,24,<U+05D2><U+05D1><U+05E8>,TRUE
282,,NA,,NA,7,1.6338,"<U+05DE><U+05E8><U+05D2><U+05DE><U+05D4>
",return,3.9169,2,1.6081,0,101,101,90,1,margema.ogg,margema,<U+05DE><U+05E8><U+05D2><U+05DE><U+05D4>,Object,0.103211492,NA,3,l,517,2.713490543,NA,NA,311,24,<U+05D2><U+05D1><U+05E8>,TRUE
283,,NA,,NA,7,1.5172,"<U+05DE><U+05E9><U+05E7><U+05D5><U+05E3>
",return,3.1497,5,0.367,0,102,102,93,1,mashkof.ogg,mashkof,<U+05DE><U+05E9><U+05E7><U+05D5><U+05E3>,Object,0.09702573,NA,2,l,149,2.173186268,NA,NA,311,24,<U+05D2><U+05D1><U+05E8>,TRUE
284,,NA,,NA,6,1.734,"<U+05E1><U+05E8><U+05D8>
",return,2.5401,7,0.9908,0,103,103,131,1,seret.ogg,seret,<U+05E1><U+05E8><U+05D8>,Object,0.089209117,NA,2,l,21281,4.327992032,NA,NA,311,24,<U+05D2><U+05D1><U+05E8>,TRUE
285,,NA,,NA,4,1.7097,<U+05DE><U+05E8><U+05D0><U+05D4>,return,2.1107,6,0.7911,0,104,104,89,1,mara.ogg,mara,<U+05DE><U+05E8><U+05D0><U+05D4>,Object,0.125482678,NA,2,l,10153,4.006594386,NA,NA,311,24,<U+05D2><U+05D1><U+05E8>,TRUE
286,,NA,,NA,7,1.6175,"<U+05DE><U+05D9><U+05DB><U+05DC>
",return,2.517,5,0.8501,0,105,105,101,1,meykhal.ogg,meykhal,<U+05DE><U+05D9><U+05DB><U+05DC>,Object,0.106401555,NA,2,l,4043,3.606703741,NA,NA,311,24,<U+05D2><U+05D1><U+05E8>,TRUE
287,,NA,,NA,7,1.568,"<U+05DE><U+05D6><U+05E8><U+05DF>
",return,2.7037,7,0.1506,0,106,106,108,1,mizran.ogg,mizran,<U+05DE><U+05D6><U+05E8><U+05DF>,Object,0.087724812,NA,2,l,108,2.033423755,NA,NA,311,24,<U+05D2><U+05D1><U+05E8>,TRUE
288,,NA,,NA,7,1.5574,"<U+05DE><U+05D3><U+05D5><U+05D6><U+05D4>
",return,2.8018,1,0.2507,0,107,107,97,1,meduza.ogg,meduza,<U+05DE><U+05D3><U+05D5><U+05D6><U+05D4>,Animal,0.115551554,NA,3,a,315,2.498310554,NA,NA,311,24,<U+05D2><U+05D1><U+05E8>,TRUE
289,,NA,,NA,7,1.5195,"<U+05DE><U+05D7><U+05D1><U+05E8><U+05EA>
",return,3.4159,7,1.2101,0,108,108,86,1,makhberet.ogg,makhberet,<U+05DE><U+05D7><U+05D1><U+05E8><U+05EA>,Object,0.093290016,NA,3,l,2348,3.370698093,NA,NA,311,24,<U+05D2><U+05D1><U+05E8>,TRUE
290,,NA,,NA,7,1.7175,"<U+05E6><U+05D9><U+05E0><U+05D5><U+05E8>
",return,4.1415,6,1.3379,0,109,109,164,1,tzinor.ogg,tzinor,<U+05E6><U+05D9><U+05E0><U+05D5><U+05E8>,Object,0.117240734,NA,2,l,2227,3.347720217,NA,NA,311,24,<U+05D2><U+05D1><U+05E8>,TRUE
291,,NA,,NA,7,1.2723,<U+05EA><U+05D5><U+05DC><U+05E2><U+05EA>,return,4.233,1,0.569,0,110,110,157,1,tolaat.ogg,tolaat,<U+05EA><U+05D5><U+05DC><U+05E2><U+05EA>,Animal,0.123411298,NA,3,a,495,2.694605199,NA,NA,311,24,<U+05D2><U+05D1><U+05E8>,TRUE
292,,NA,,NA,7,1.5732,"<U+05DB><U+05E4><U+05D9><U+05EA>
",return,3.9241,7,1.2416,0,111,111,43,1,kapit.ogg,kapit,<U+05DB><U+05E4><U+05D9><U+05EA>,Object,0.097893588,NA,2,l,156,2.193124598,NA,NA,311,24,<U+05D2><U+05D1><U+05E8>,TRUE
293,,NA,,NA,7,5.5154,"<U+05D6><U+05D9><U+05E7><U+05D9><U+05EA>
",return,3.0328,2,0.5841,0,112,112,179,1,zikit.ogg,zikit,<U+05D6><U+05D9><U+05E7><U+05D9><U+05EA>,Animal,0.050165605,NA,2,a,196,2.292256071,NA,NA,311,24,<U+05D2><U+05D1><U+05E8>,TRUE
294,,NA,,NA,7,4.1443,"<U+05D2><U+05D5><U+05E4><U+05D4>
",return,3.2426,1,0.4682,0,113,113,38,1,gufa.ogg,gufa,<U+05D2><U+05D5><U+05E4><U+05D4>,Object,0.134599254,NA,2,l,1580,3.198657087,NA,NA,311,24,<U+05D2><U+05D1><U+05E8>,TRUE
295,,NA,,NA,7,1.2839,"<U+05EA><U+05D5><U+05DB><U+05D9>
",return,2.8156,7,0.5547,0,114,114,158,1,tuki.ogg,tuki,<U+05EA><U+05D5><U+05DB><U+05D9>,Animal,0.063380264,NA,2,a,384,2.584331224,NA,NA,311,24,<U+05D2><U+05D1><U+05E8>,TRUE
296,,NA,,NA,7,2.3673,"<U+05DB><U+05DC><U+05D1>
",return,2.8332,7,0.5009,0,115,115,50,1,kelev.ogg,kelev,<U+05DB><U+05DC><U+05D1>,Animal,0.096111767,NA,2,a,3113,3.493179121,NA,NA,311,24,<U+05D2><U+05D1><U+05E8>,TRUE
297,,NA,,NA,7,1.6517,"<U+05DE><U+05E1><U+05DA>
",return,2.5999,5,0.2216,0,116,116,91,1,masakh.ogg,masakh,<U+05DE><U+05E1><U+05DA>,Object,0.107740089,NA,2,l,4186,3.621799224,NA,NA,311,24,<U+05D2><U+05D1><U+05E8>,TRUE
298,,NA,,NA,7,3.2557,"<U+05D2><U+05DE><U+05DC>
",return,2.506,7,1.7007,0,117,117,35,1,gamal.ogg,gamal,<U+05D2><U+05DE><U+05DC>,Animal,0.106346443,NA,2,a,791,2.898176483,NA,NA,311,24,<U+05D2><U+05D1><U+05E8>,TRUE
299,,NA,,NA,7,2.5255,"<U+05D9><U+05D5><U+05E0><U+05D4>
",return,2.0837,5,0.4034,0,118,118,175,1,yona.ogg,yona,<U+05D9><U+05D5><U+05E0><U+05D4>,Animal,0.112634435,NA,2,a,3945,3.596047008,NA,NA,311,24,<U+05D2><U+05D1><U+05E8>,TRUE
300,,NA,,NA,7,1.6922,"<U+05E2><U+05D0><U+05D1><U+05D9><U+05DA>
",return,3.9751,4,0.2328,0,119,119,36,1,gerbil.ogg,gerbil,<U+05D2><U+05E8><U+05D1><U+05D9><U+05DC>,Animal,0.144204035,NA,2,a,60,1.77815125,NA,NA,311,24,<U+05D2><U+05D1><U+05E8>,FALSE
301,,NA,,NA,4,0.5339,"<U+05D0><U+05E8><U+05D9><U+05D4>
",return,7.6334,3,2.0252,0,120,120,10,1,arye.ogg,arye,<U+05D0><U+05E8><U+05D9><U+05D4>,Animal,0.164735422,NA,2,a,9646,3.984347258,NA,NA,311,24,<U+05D2><U+05D1><U+05E8>,TRUE
302,,NA,,NA,7,1.6066,"<U+05D3><U+05D1><U+05D5><U+05E8>
",return,4.2503,1,1.667,0,121,121,24,1,dabur.ogg,dabur,<U+05D3><U+05D1><U+05D5><U+05E8>,Animal,0.082003802,NA,2,a,284,2.45331834,NA,NA,311,24,<U+05D2><U+05D1><U+05E8>,TRUE
303,,NA,,NA,7,1.9007,"<U+05DE><U+05D6><U+05DC><U+05D2>
",return,4.5703,7,0.6541,0,122,122,95,1,mazleg.ogg,mazleg,<U+05DE><U+05D6><U+05DC><U+05D2>,Object,0.100036196,NA,2,l,133,2.123851641,NA,NA,311,24,<U+05D2><U+05D1><U+05E8>,TRUE
304,,NA,,NA,7,1.5344,"<U+05E9><U+05E7><U+05D9><U+05EA>
",return,2.127,7,0.5597,0,123,123,127,1,sakit.ogg,sakit,<U+05E9><U+05E7><U+05D9><U+05EA>,Object,0.074701726,NA,2,l,286,2.456366033,NA,NA,311,24,<U+05D2><U+05D1><U+05E8>,TRUE
305,,NA,,NA,7,1.3007,"<U+05DC><U+05D5><U+05D8><U+05E8><U+05D4>
",return,5.0095,7,0.7098,0,124,124,80,1,lutra.ogg,lutra,<U+05DC><U+05D5><U+05D8><U+05E8><U+05D4>,Animal,0.078512102,NA,2,a,147,2.167317335,NA,NA,311,24,<U+05D2><U+05D1><U+05E8>,TRUE
306,,NA,,NA,7,1.5006,"<U+05E7><U+05D5><U+05D1><U+05E8><U+05D4>
",return,3.9117,1,0.137,0,125,125,23,1,cobra.ogg,cobra,<U+05E7><U+05D5><U+05D1><U+05E8><U+05D4>,Animal,0.082278177,NA,2,a,432,2.635483747,NA,NA,311,24,<U+05D2><U+05D1><U+05E8>,TRUE
307,,NA,,NA,7,1.4578,<U+05D1><U+05E0><U+05D9><U+05D9><U+05DF>,return,2.2938,7,0.417,0,126,126,19,1,binyan.ogg,binyan,<U+05D1><U+05E0><U+05D9><U+05D9><U+05DF>,Object,0.117052279,NA,2,l,9236,3.965483924,NA,NA,311,24,<U+05D2><U+05D1><U+05E8>,TRUE
308,,NA,,NA,7,1.484,"<U+05E1><U+05D5><U+05D5><U+05D3><U+05E8>
",return,1.8701,7,0.3672,0,127,127,148,1,sveder.ogg,sveder,<U+05E1><U+05D5><U+05D5><U+05D3><U+05E8>,Object,0.088040411,NA,2,l,67,1.826074803,NA,NA,311,24,<U+05D2><U+05D1><U+05E8>,TRUE
309,,NA,,NA,7,1.3669,"<U+05E9><U+05E8><U+05E7><U+05DF>
",return,2.8589,6,0.3503,0,128,128,136,1,sharkan.ogg,sharkan,<U+05E9><U+05E8><U+05E7><U+05DF>,Animal,0.100178316,NA,2,a,33,1.51851394,NA,NA,311,24,<U+05D2><U+05D1><U+05E8>,TRUE
310,,NA,,NA,7,1.7065,"<U+05D6><U+05D1><U+05DC>
",return,2.4154,1,0.0818,0,129,129,178,1,zevel.ogg,zevel,<U+05D6><U+05D1><U+05DC>,Object,0.064413197,NA,2,l,947,2.976349979,NA,NA,311,24,<U+05D2><U+05D1><U+05E8>,TRUE
311,,NA,,NA,7,1.1783,"<U+05D7><U+05DE><U+05D5><U+05E8>
",return,2.6367,2,0.2746,0,130,130,56,1,khamor.ogg,khamor,<U+05D7><U+05DE><U+05D5><U+05E8>,Animal,0.079540603,NA,2,a,3943,3.595826777,NA,NA,311,24,<U+05D2><U+05D1><U+05E8>,TRUE
312,,NA,,NA,7,1.7438,"<U+05E7><U+05D5><U+05E4><U+05D9><U+05E3>
",return,3.2533,6,0.3051,0,131,131,76,1,kofif.ogg,kofif,<U+05E7><U+05D5><U+05E4><U+05D9><U+05E3>,Animal,0.058681544,NA,2,a,26,1.414973348,NA,NA,311,24,<U+05D2><U+05D1><U+05E8>,TRUE
313,,NA,,NA,7,1.1093,"<U+05DC><U+05D8><U+05D0><U+05D4>
",return,2.5903,2,0.5016,0,132,132,78,1,letaa.ogg,letaa,<U+05DC><U+05D8><U+05D0><U+05D4>,Animal,0.164500833,NA,3,a,374,2.572871602,NA,NA,311,24,<U+05D2><U+05D1><U+05E8>,TRUE
314,,NA,,NA,5,1.2733,"<U+05DE><U+05DB><U+05E1><U+05D9><U+05DF>
",return,4.1662,4,0.5339,0,133,133,81,1,magazin.ogg,magazin,<U+05DE><U+05D2><U+05D6><U+05D9><U+05DF>,Object,0.125492305,NA,3,l,4437,3.647089429,NA,NA,311,24,<U+05D2><U+05D1><U+05E8>,FALSE
315,,NA,,NA,7,2.0204,"<U+05D7><U+05D9><U+05E4><U+05D5><U+05E9><U+05D9><U+05EA>
",return,3.9031,1,0.0502,0,134,134,65,1,khipushit.ogg,khipushit,<U+05D7><U+05D9><U+05E4><U+05D5><U+05E9><U+05D9><U+05EA>,Animal,0.081689842,NA,3,a,257,2.409933123,NA,NA,311,24,<U+05D2><U+05D1><U+05E8>,TRUE
316,,NA,,NA,5,1.6047,"<U+05E2><U+05DE><U+05D5><U+05D3>
",return,2.3063,4,0.1261,0,135,135,7,1,amud.ogg,amud,<U+05E2><U+05DE><U+05D5><U+05D3>,Object,0.063451871,NA,2,l,6218,3.793650718,NA,NA,311,24,<U+05D2><U+05D1><U+05E8>,TRUE
317,,NA,,NA,5,1.3175,"<U+05E9><U+05E7><U+05E0><U+05D0><U+05D9>
",return,4.1411,5,0.1005,0,136,136,128,1,saknai.ogg,saknai,<U+05E9><U+05E7><U+05E0><U+05D0><U+05D9>,Animal,0.099183612,NA,2,a,98,1.991226076,NA,NA,311,24,<U+05D2><U+05D1><U+05E8>,TRUE
318,,NA,,NA,4,1.1538,<U+05DE><U+05D7><U+05E7>,return,1.8833,3,0.851,0,137,137,85,1,makhak.ogg,makhak,<U+05DE><U+05D7><U+05E7>,Object,0.09056624,NA,2,l,1987,3.298197867,NA,NA,311,24,<U+05D2><U+05D1><U+05E8>,TRUE
319,,NA,,NA,7,1.6832,"<U+05E8><U+05D5><U+05D1><U+05D4>
",return,1.9222,2,0.4336,0,138,138,125,1,rove.ogg,rove,<U+05E8><U+05D5><U+05D1><U+05D4>,Object,0.140838295,NA,2,l,2823,3.450710878,NA,NA,311,24,<U+05D2><U+05D1><U+05E8>,TRUE
320,,NA,,NA,4,1.2255,"<U+05D0><U+05DC><U+05D1><U+05D5><U+05DD>
",return,4.1938,7,0.5597,0,139,139,5,1,albom.ogg,albom,<U+05D0><U+05DC><U+05D1><U+05D5><U+05DD>,Object,0.109131724,NA,2,l,18323,4.262996582,NA,NA,311,24,<U+05D2><U+05D1><U+05E8>,TRUE
321,,NA,,NA,5,0.9891,"<U+05DE><U+05D6><U+05DC><U+05D2>
",return,3.9506,3,0.3343,0,140,140,96,1,mazrek.ogg,mazrek,<U+05DE><U+05D6><U+05E8><U+05E7>,Object,0.086367108,NA,2,l,89,1.949390007,NA,NA,311,24,<U+05D2><U+05D1><U+05E8>,FALSE
322,,NA,,NA,7,1.6092,<U+05E6><U+05DC><U+05D7><U+05EA>,return,1.8321,4,0.2159,0,141,141,159,1,tzalakhat.ogg,tzalakhat,<U+05E6><U+05DC><U+05D7><U+05EA>,Object,0.123914987,NA,3,l,450,2.653212514,NA,NA,311,24,<U+05D2><U+05D1><U+05E8>,TRUE
323,,NA,,NA,4,1.4016,"5<U+05D7><U+05DB><U+05DE><U+05DB><U+05D7>
",return,0.8493,4,0.3175,0,142,142,102,1,mikhnas.ogg,mikhnas,<U+05DE><U+05DB><U+05E0><U+05E1>,Object,0.095144257,NA,2,l,424,2.627365857,NA,NA,311,24,<U+05D2><U+05D1><U+05E8>,FALSE
324,,NA,,NA,4,1.5739,"<U+05E6><U+05DE><U+05D9><U+05D3>
",return,2.2885,7,1.3008,0,143,143,160,1,tzamid.ogg,tzamid,<U+05E6><U+05DE><U+05D9><U+05D3>,Object,0.08472456,NA,2,l,190,2.278753601,NA,NA,311,24,<U+05D2><U+05D1><U+05E8>,TRUE
325,,NA,,NA,7,1.6236,"<U+05DE><U+05D7><U+05D5><U+05D2><U+05D4>
",return,5.3866,7,1.3509,0,144,144,98,1,mekhoga.ogg,mekhoga,<U+05DE><U+05D7><U+05D5><U+05D2><U+05D4>,Object,0.115358345,NA,3,l,31,1.491361694,NA,NA,311,24,<U+05D2><U+05D1><U+05E8>,TRUE
326,,NA,,NA,7,1.6165,"<U+05DE><U+05D2><U+05D1><U+05EA>
",return,2.0324,7,0.9379,0,145,145,82,1,magevet.ogg,magevet,<U+05DE><U+05D2><U+05D1><U+05EA>,Object,0.102448098,NA,3,l,108,2.033423755,NA,NA,311,24,<U+05D2><U+05D1><U+05E8>,TRUE
327,,NA,,NA,7,1.4555,"<U+05E6><U+05D9><U+05E4><U+05D5><U+05E8>
",return,1.9598,7,0.3853,0,146,146,165,1,tzipor.ogg,tzipor,<U+05E6><U+05D9><U+05E4><U+05D5><U+05E8>,Animal,0.107238561,NA,2,a,1741,3.240798771,NA,NA,311,24,<U+05D2><U+05D1><U+05E8>,TRUE
328,,NA,,NA,6,2.5188,"<U+05E2><U+05D5><U+05E8><U+05D1>
",return,5.94,1,0.2343,0,147,147,115,1,orev.ogg,orev,<U+05E2><U+05D5><U+05E8><U+05D1>,Animal,0.13908121,NA,2,a,438,2.641474111,NA,NA,311,24,<U+05D2><U+05D1><U+05E8>,TRUE
329,,NA,,NA,7,1.3781,"<U+05E9><U+05D9><U+05D7>
",return,1.4671,6,0.5848,0,148,148,143,1,siakh.ogg,siakh,<U+05E9><U+05D9><U+05D7>,Object,0.115275718,NA,2,l,4055,3.607990859,NA,NA,311,24,<U+05D2><U+05D1><U+05E8>,TRUE
330,,NA,,NA,7,1.3839,"<U+05E6><U+05D1><U+05D5><U+05E2>
",return,2.4706,1,0.6015,0,149,149,161,1,tzavoa.ogg,tzavoa,<U+05E6><U+05D1><U+05D5><U+05E2>,Animal,0.099820822,NA,2,a,788,2.896526217,NA,NA,311,24,<U+05D2><U+05D1><U+05E8>,TRUE
331,,NA,,NA,2,1.8181,"<U+05DE><U+05D1><U+05D5><U+05DC>
",return,2.3743,2,2.3842,0,150,150,14,1,baboon.ogg,baboon,<U+05D1><U+05D1><U+05D5><U+05DF>,Animal,0.106068902,NA,2,a,416,2.619093331,NA,NA,311,24,<U+05D2><U+05D1><U+05E8>,FALSE
332,,NA,,NA,7,1.4264,"<U+05DE><U+05DB><U+05E2><U+05D9><U+05DC>
",return,2.4407,5,0.2445,0,151,151,0,1,agil.ogg,agil,<U+05E2><U+05D2><U+05D9><U+05DC>,Object,0.086492002,NA,2,l,101,2.004321374,NA,NA,311,24,<U+05D2><U+05D1><U+05E8>,FALSE
333,,NA,,NA,4,2.6562,"<U+05E4><U+05E8><U+05E4><U+05E8>
",return,3.4328,7,0.3839,0,152,152,119,1,parpar.ogg,parpar,<U+05E4><U+05E8><U+05E4><U+05E8>,Animal,0.097249389,NA,2,a,2731,3.4363217,NA,NA,311,24,<U+05D2><U+05D1><U+05E8>,TRUE
334,,NA,,NA,4,3.1467,"<U+05D7><U+05D5><U+05D2><U+05DC><U+05D4>
",return,3.8722,4,1.6846,0,153,153,67,1,khugla.ogg,khugla,<U+05D7><U+05D5><U+05D2><U+05DC><U+05D4>,Animal,0.093599491,NA,2,a,59,1.770852012,NA,NA,311,24,<U+05D2><U+05D1><U+05E8>,TRUE
335,,NA,,NA,7,1.3338,<U+05DB><U+05E8><U+05D9><U+05E9>,return,5.3996,2,1.3084,0,154,154,44,1,karish.ogg,karish,<U+05DB><U+05E8><U+05D9><U+05E9>,Animal,0.087359764,NA,2,a,811,2.909020854,NA,NA,311,24,<U+05D2><U+05D1><U+05E8>,TRUE
336,,NA,,NA,7,1.1071,"<U+05E1><U+05E0><U+05D0><U+05D9>
",return,12.2521,7,0.3174,0,155,155,146,1,snai.ogg,snai,<U+05E1><U+05E0><U+05D0><U+05D9>,Animal,0.110551231,NA,2,a,255,2.40654018,NA,NA,311,24,<U+05D2><U+05D1><U+05E8>,TRUE
337,,NA,,NA,7,1.7416,"<U+05E4><U+05E0><U+05D3><U+05D4>
",return,1.7424,7,0.0847,0,156,156,117,1,panda.ogg,panda,<U+05E4><U+05E0><U+05D3><U+05D4>,Animal,0.136955202,NA,2,a,325,2.511883361,NA,NA,311,24,<U+05D2><U+05D1><U+05E8>,TRUE
338,,NA,,NA,7,1.6722,"<U+05D9><U+05E2><U+05DC>
",return,1.8333,7,NA,0,157,157,169,1,yael.ogg,yael,<U+05D9><U+05E2><U+05DC>,Animal,0.118427262,NA,2,a,4726,3.674493717,NA,NA,311,24,<U+05D2><U+05D1><U+05E8>,TRUE
339,,NA,,NA,6,0.7586,"75<U+05D9><U+05DE><U+05DB><U+05D9><U+05D8>4667
",return,1.5657,7,0.4592,0,158,158,33,1,gader.ogg,gader,<U+05D2><U+05D3><U+05E8>,Object,0.151912183,NA,2,l,2156,3.333648757,NA,NA,311,24,<U+05D2><U+05D1><U+05E8>,FALSE
340,,NA,,NA,7,1.142,"<U+05D8><U+05D8><U+05E2><U+05D2><U+05E2>
",return,2.2707,5,1.493,0,159,159,100,1,merakekh.ogg,merakekh,<U+05DE><U+05E8><U+05DB><U+05DA>,Object,0.084448174,NA,3,l,37,1.568201724,NA,NA,311,24,<U+05D2><U+05D1><U+05E8>,FALSE
341,,NA,,NA,5,5.0532,"<U+05E2><U+05E0><U+05D2><U+05DB><U+05E0>
",return,1.1872,5,1.8283,0,160,160,29,1,dyunon.ogg,dyunon,<U+05D3><U+05D9><U+05D5><U+05E0><U+05D5><U+05DF>,Animal,0.11314705,NA,3,a,160,2.204119983,NA,NA,311,24,<U+05D2><U+05D1><U+05E8>,FALSE
342,,NA,,NA,2,3.5935,"<U+05E2><U+05D4><U+05D9>
",return,1.0849,3,1.5402,0,161,161,109,1,naalaim.ogg,naalaim,<U+05E0><U+05E2><U+05DC><U+05D9><U+05D9><U+05DD>,Object,0.115955301,NA,2,l,1213,3.083860801,NA,NA,311,24,<U+05D2><U+05D1><U+05E8>,FALSE
343,,NA,,NA,3,2.2731,"<U+05D2><U+05D2><U+05D4><U+05D2>
",return,1.0754,2,0.3038,0,162,162,155,1,tikan.ogg,tikan,<U+05EA><U+05D9><U+05E7><U+05DF>,Animal,0.091878034,NA,2,a,661,2.820201459,NA,NA,311,24,<U+05D2><U+05D1><U+05E8>,FALSE
344,,NA,,NA,2,1.9509,"<U+05E7><U+05DB><U+05DB><U+05E7>
",return,0.9201,3,0.2043,0,163,163,154,1,tigris.ogg,tigris,<U+05D8><U+05D9><U+05D2><U+05E8><U+05D9><U+05E1>,Animal,0.084738761,NA,2,a,307,2.487138375,NA,NA,311,24,<U+05D2><U+05D1><U+05E8>,FALSE
345,,NA,,NA,2,0.5357,"<U+05D2><U+05DB><U+05DB>
",return,0.6222,2,0.2009,0,164,164,88,1,makhvat.ogg,makhvat,<U+05DE><U+05D7><U+05D1><U+05EA>,Object,0.084296793,NA,2,l,71,1.851258349,NA,NA,311,24,<U+05D2><U+05D1><U+05E8>,FALSE
346,,NA,,NA,2,0.9118,"<U+05D2><U+05D2><U+05D2><U+05D4><U+05DB><U+05E7>
",return,1.6475,3,0.1241,0,165,165,167,1,virus.ogg,virus,<U+05D5><U+05D9><U+05E8><U+05D5><U+05E1>,Animal,0.070612773,NA,2,a,897,2.952792443,NA,NA,311,24,<U+05D2><U+05D1><U+05E8>,FALSE
347,,NA,,NA,2,0.611,"<U+05D3><U+05DB><U+05E7><U+05DB>
",return,1.4015,2,0.3356,0,166,166,99,1,menora.ogg,menora,<U+05DE><U+05E0><U+05D5><U+05E8><U+05D4>,Object,0.109452769,NA,3,l,578,2.761927838,NA,NA,311,24,<U+05D2><U+05D1><U+05E8>,FALSE
348,,NA,,NA,2,0.7358,"<U+05D2><U+05D4><U+05DB><U+05E7><U+05DB><U+05E7>
",return,0.7651,4,NA,0,167,167,12,1,atzlan.ogg,atzlan,<U+05E2><U+05E6><U+05DC><U+05DF>,Animal,0.109640174,NA,2,a,191,2.281033367,NA,NA,311,24,<U+05D2><U+05D1><U+05E8>,FALSE
349,,NA,,NA,7,2.8701,"<U+05D7><U+05DC><U+05D5><U+05DF>
",return,5.7542,6,0.6715,0,168,168,55,1,khalon.ogg,khalon,<U+05D7><U+05DC><U+05D5><U+05DF>,Object,0.103929475,NA,2,l,1996,3.300160537,NA,NA,311,24,<U+05D2><U+05D1><U+05E8>,TRUE
350,,NA,,NA,5,0.9249,"<U+05D9><U+05D2><U+05D7><U+05D7><U+05D3><U+05DC><U+05E6><U+05E7>
",return,0.8397,3,0.3694,0,169,169,113,1,ogdan.ogg,ogdan,<U+05D0><U+05D5><U+05D2><U+05D3><U+05DF>,Object,0.128981724,NA,2,l,220,2.342422681,NA,NA,311,24,<U+05D2><U+05D1><U+05E8>,FALSE
351,,NA,,NA,4,0.7844,"<U+05D9>'<U+05D2><U+05D9><U+05D7>'<U+05D2>
",return,0.9226,3,0.6758,0,170,170,176,1,zebra.ogg,zebra,<U+05D6><U+05D1><U+05E8><U+05D4>,Animal,0.169265404,NA,2,a,190,2.278753601,NA,NA,311,24,<U+05D2><U+05D1><U+05E8>,FALSE
352,,NA,,NA,4,0.6011,"<U+05D9><U+05D2><U+05D9><U+05E7><U+05D9>
",return,0.8714,3,0.1019,0,171,171,37,1,gorila.ogg,gorila,<U+05D2><U+05D5><U+05E8><U+05D9><U+05DC><U+05D4>,Animal,0.083233468,NA,3,a,174,2.240549248,NA,NA,311,24,<U+05D2><U+05D1><U+05E8>,FALSE
353,,NA,,NA,3,0.5941,<U+05D7><U+05D9><U+05D2><U+05D9><U+05D7>,return,0.8113,3,0.2033,0,172,172,28,1,dukhifat.ogg,dukhifat,<U+05D3><U+05D5><U+05DB><U+05D9><U+05E4><U+05EA>,Animal,0.106685437,NA,3,a,240,2.380211242,NA,NA,311,24,<U+05D2><U+05D1><U+05E8>,FALSE
354,,NA,,NA,3,0.1172,"<U+05D7><U+05D9><U+05D2><U+05D9>'<U+05E7>
",return,0.7995,3,0.2722,0,173,173,15,1,bakbuk.ogg,bakbuk,<U+05D1><U+05E7><U+05D1><U+05D5><U+05E7>,Object,0.076802008,NA,2,l,940,2.973127854,NA,NA,311,24,<U+05D2><U+05D1><U+05E8>,FALSE
355,,NA,,NA,3,0.0583,"<U+05D9><U+05E7><U+05D9><U+05D7><U+05DE><U+05E7><U+05D9><U+05DE>
",return,0.9525,3,0.2197,0,174,174,39,1,heroin.ogg,heroin,<U+05D4><U+05E8><U+05D5><U+05D0><U+05D9><U+05DF>,Object,0.060458813,NA,3,l,284,2.45331834,NA,NA,311,24,<U+05D2><U+05D1><U+05E8>,FALSE
356,,NA,,NA,3,0.2939,"<U+05D9><U+05E7><U+05D9><U+05DE><U+05E0><U+05E7><U+05DE>
",return,0.9354,3,0.1182,0,175,175,1,1,akavish.ogg,akavish,<U+05E2><U+05DB><U+05D1><U+05D9><U+05E9>,Animal,0.085073575,NA,3,a,438,2.641474111,NA,NA,311,24,<U+05D2><U+05D1><U+05E8>,FALSE
357,,NA,,NA,3,0.4175,"<U+05D7><U+05DC><U+05E0><U+05E7><U+05D2><U+05D7><U+05E7>
",return,0.6726,3,0.1176,0,176,176,22,1,buba.ogg,buba,<U+05D1><U+05D5><U+05D1><U+05D4>,Object,0.085309803,NA,2,l,942,2.974050903,NA,NA,311,24,<U+05D2><U+05D1><U+05E8>,FALSE
358,,NA,,NA,3,0.0998,"<U+05D7><U+05DC><U+05E7><U+05D7><U+05D2><U+05E6>
",return,0.753,3,0.1119,0,177,177,45,1,karit.ogg,karit,<U+05DB><U+05E8><U+05D9><U+05EA>,Object,0.099997073,NA,2,l,249,2.396199347,NA,NA,311,24,<U+05D2><U+05D1><U+05E8>,FALSE
359,,NA,,NA,3,0.0343,"3<U+05E0><U+05E7><U+05D9><U+05D7><U+05E7><U+05D2>
",return,1.1028,3,0.2011,0,178,178,25,1,delet.ogg,delet,<U+05D3><U+05DC><U+05EA>,Object,0.105762191,NA,2,l,1923,3.283979284,NA,NA,311,24,<U+05D2><U+05D1><U+05E8>,FALSE
360,,NA,,NA,3,0.537,"<U+05DC><U+05D7><U+05DA><U+05E7><U+05D7><U+05DC><U+05DB><U+05D7>
",return,0.7587,3,0.0387,0,179,179,120,1,patish.ogg,patish,<U+05E4><U+05D8><U+05D9><U+05E9>,Object,0.086733863,NA,2,l,1019,3.008174184,NA,NA,311,24,<U+05D2><U+05D1><U+05E8>,FALSE
361,space,10.2698,space,8.2456,7,9.7076,"<U+05D6><U+05D9><U+05E7><U+05D9><U+05EA>
",return,5.6118,7,5.4334,0,0,0,179,1,zikit.ogg,zikit,<U+05D6><U+05D9><U+05E7><U+05D9><U+05EA>,Animal,0.050165605,NA,2,a,196,2.292256071,NA,NA,312,26,<U+05D0><U+05D9><U+05E9><U+05D4>,TRUE
362,,NA,,NA,7,3.2141,"<U+05E9><U+05E2><U+05E8>
",return,5.4534,7,2.9153,0,1,1,132,1,shaar.ogg,shaar,<U+05E9><U+05E2><U+05E8>,Object,0.120827317,NA,2,l,18280,4.261976191,NA,NA,312,26,<U+05D0><U+05D9><U+05E9><U+05D4>,TRUE
363,,NA,,NA,7,2.6718,"<U+05D7><U+05DC><U+05D5><U+05DF>
",return,3.9644,4,5.5622,0,2,2,55,1,khalon.ogg,khalon,<U+05D7><U+05DC><U+05D5><U+05DF>,Object,0.103929475,NA,2,l,1996,3.300160537,NA,NA,312,26,<U+05D0><U+05D9><U+05E9><U+05D4>,TRUE
364,,NA,,NA,7,2.8145,"<U+05E9><U+05D5><U+05E2><U+05DC>
",return,3.112,4,2.6501,0,3,3,140,1,shual.ogg,shual,<U+05E9><U+05D5><U+05E2><U+05DC>,Animal,0.122284986,NA,2,a,844,2.926342447,NA,NA,312,26,<U+05D0><U+05D9><U+05E9><U+05D4>,TRUE
365,,NA,,NA,2,4.2335,"<U+05DE><U+05E9><U+05E7><U+05D5><U+05E3>
",return,3.7841,4,1.9887,0,4,4,93,1,mashkof.ogg,mashkof,<U+05DE><U+05E9><U+05E7><U+05D5><U+05E3>,Object,0.09702573,NA,2,l,149,2.173186268,NA,NA,312,26,<U+05D0><U+05D9><U+05E9><U+05D4>,TRUE
366,,NA,,NA,7,5.4643,"<U+05D1><U+05D5><U+05E0><U+05D4>
",return,3.0449,4,1.6995,0,5,5,20,1,bone.ogg,bone,<U+05D1><U+05D5><U+05E0><U+05D4>,Animal,0.109915785,NA,2,a,2950,3.469822016,NA,NA,312,26,<U+05D0><U+05D9><U+05E9><U+05D4>,TRUE
367,,NA,,NA,7,2.6017,"<U+05EA><U+05E0><U+05E9><U+05DE><U+05EA>
",return,3.6808,4,2.4611,0,6,6,156,1,tinshemet.ogg,tinshemet,<U+05EA><U+05E0><U+05E9><U+05DE><U+05EA>,Animal,0.11601489,NA,3,a,61,1.785329835,NA,NA,312,26,<U+05D0><U+05D9><U+05E9><U+05D4>,TRUE
368,,NA,,NA,7,2.4649,"<U+05D2><U+05DE><U+05DC>
",return,2.5867,4,0.8166,0,7,7,35,1,gamal.ogg,gamal,<U+05D2><U+05DE><U+05DC>,Animal,0.106346443,NA,2,a,791,2.898176483,NA,NA,312,26,<U+05D0><U+05D9><U+05E9><U+05D4>,TRUE
369,,NA,,NA,7,2.3025,"<U+05D7><U+05D6><U+05D9><U+05E8>
",return,2.4169,4,1.285,0,8,8,62,1,khazir.ogg,khazir,<U+05D7><U+05D6><U+05D9><U+05E8>,Animal,0.058417033,NA,2,a,1601,3.204391332,NA,NA,312,26,<U+05D0><U+05D9><U+05E9><U+05D4>,TRUE
370,,NA,,NA,7,2.6989,"<U+05E6><U+05D5><U+05D0><U+05D4>
",return,2.4298,4,1.9322,0,9,9,166,1,tzoa.ogg,tzoa,<U+05E6><U+05D5><U+05D0><U+05D4>,Object,0.143895417,NA,2,l,332,2.521138084,NA,NA,312,26,<U+05D0><U+05D9><U+05E9><U+05D4>,TRUE
371,,NA,,NA,7,2.365,"<U+05E2><U+05DB><U+05D1><U+05E8><U+05D5><U+05E9>
",return,2.9296,3,3.16,0,10,10,3,1,akhbarosh.ogg,akhbarosh,<U+05E2><U+05DB><U+05D1><U+05E8><U+05D5><U+05E9>,Animal,0.114850186,NA,3,a,143,2.155336037,NA,NA,312,26,<U+05D0><U+05D9><U+05E9><U+05D4>,TRUE
372,,NA,,NA,3,3.4638,"<U+05E2><U+05E6><U+05DC><U+05DF>
",return,3.1627,2,3.082,0,11,11,12,1,atzlan.ogg,atzlan,<U+05E2><U+05E6><U+05DC><U+05DF>,Animal,0.109640174,NA,2,a,191,2.281033367,NA,NA,312,26,<U+05D0><U+05D9><U+05E9><U+05D4>,TRUE
373,,NA,,NA,7,2.083,"<U+05DE><U+05D2><U+05D1><U+05EA>
",return,2.5507,4,2.5988,0,12,12,82,1,magevet.ogg,magevet,<U+05DE><U+05D2><U+05D1><U+05EA>,Object,0.102448098,NA,3,l,108,2.033423755,NA,NA,312,26,<U+05D0><U+05D9><U+05E9><U+05D4>,TRUE
374,,NA,,NA,7,1.949,"<U+05E9><U+05E7><U+05D9><U+05EA>
",return,1.9805,4,0.5076,0,13,13,127,1,sakit.ogg,sakit,<U+05E9><U+05E7><U+05D9><U+05EA>,Object,0.074701726,NA,2,l,286,2.456366033,NA,NA,312,26,<U+05D0><U+05D9><U+05E9><U+05D4>,TRUE
375,,NA,,NA,1,4.8344,"<U+05DB><U+05D9><U+05E0><U+05D4>
",return,3.6972,1,1.6412,0,14,14,69,1,kina.ogg,kina,<U+05DB><U+05D9><U+05E0><U+05D4>,Animal,0.063055128,NA,2,a,3145,3.49762065,NA,NA,312,26,<U+05D0><U+05D9><U+05E9><U+05D4>,TRUE
376,,NA,,NA,5,2.9857,"<U+05DE><U+05D7><U+05E7>
",return,2.5811,4,1.0722,0,15,15,85,1,makhak.ogg,makhak,<U+05DE><U+05D7><U+05E7>,Object,0.09056624,NA,2,l,1987,3.298197867,NA,NA,312,26,<U+05D0><U+05D9><U+05E9><U+05D4>,TRUE
377,,NA,,NA,7,2.1875,"<U+05E2><U+05D5><U+05E8><U+05D1>
",return,1.9135,4,2.0165,0,16,16,115,1,orev.ogg,orev,<U+05E2><U+05D5><U+05E8><U+05D1>,Animal,0.13908121,NA,2,a,438,2.641474111,NA,NA,312,26,<U+05D0><U+05D9><U+05E9><U+05D4>,TRUE
378,,NA,,NA,7,2.3316,"<U+05E1><U+05E8><U+05D8>
",return,4.3847,7,1.5376,0,17,17,131,1,seret.ogg,seret,<U+05E1><U+05E8><U+05D8>,Object,0.089209117,NA,2,l,21281,4.327992032,NA,NA,312,26,<U+05D0><U+05D9><U+05E9><U+05D4>,TRUE
379,,NA,,NA,1,2.9481,"<U+05D4><U+05D5><U+05E8><U+05D2>?
",return,7.4754,1,1.6218,0,18,18,21,1,boreg.ogg,boreg,<U+05D1><U+05D5><U+05E8><U+05D2>,Object,0.123916112,NA,2,l,1630,3.212187604,NA,NA,312,26,<U+05D0><U+05D9><U+05E9><U+05D4>,FALSE
380,,NA,,NA,7,3.5959,"<U+05E7><U+05D5><U+05E4><U+05D9><U+05E3>
",return,3.6289,4,1.6989,0,19,19,76,1,kofif.ogg,kofif,<U+05E7><U+05D5><U+05E4><U+05D9><U+05E3>,Animal,0.058681544,NA,2,a,26,1.414973348,NA,NA,312,26,<U+05D0><U+05D9><U+05E9><U+05D4>,TRUE
381,,NA,,NA,1,2.0891,"<U+05D0><U+05D9><U+05DF> <U+05DC><U+05D9> <U+05DE><U+05D5><U+05E9><U+05D2>
",return,9.6075,1,1.3887,0,20,20,26,1,dira.ogg,dira,<U+05D3><U+05D9><U+05E8><U+05D4>,Object,0.093515851,NA,2,l,1560,3.193124598,NA,NA,312,26,<U+05D0><U+05D9><U+05E9><U+05D4>,FALSE
382,,NA,,NA,7,2.4655,<U+05DE><U+05E8><U+05D2><U+05DE><U+05D4>,return,2.5724,1,1.3503,0,21,21,90,1,margema.ogg,margema,<U+05DE><U+05E8><U+05D2><U+05DE><U+05D4>,Object,0.103211492,NA,3,l,517,2.713490543,NA,NA,312,26,<U+05D0><U+05D9><U+05E9><U+05D4>,TRUE
383,,NA,,NA,7,2.1487,"<U+05DB><U+05DC><U+05D5><U+05D1>
",return,1.9877,1,1.655,0,22,22,74,1,kluv.ogg,kluv,<U+05DB><U+05DC><U+05D5><U+05D1>,Object,0.114783913,NA,2,l,481,2.682145076,NA,NA,312,26,<U+05D0><U+05D9><U+05E9><U+05D4>,TRUE
384,,NA,,NA,7,1.9823,"<U+05DE><U+05D9><U+05E7><U+05E1><U+05E8>
",return,2.8472,7,1.0336,0,23,23,103,1,mikser.ogg,mikser,<U+05DE><U+05D9><U+05E7><U+05E1><U+05E8>,Object,0.084246255,NA,2,l,39,1.591064607,NA,NA,312,26,<U+05D0><U+05D9><U+05E9><U+05D4>,TRUE
385,,NA,,NA,7,2.1842,"<U+05E0><U+05E2><U+05DC><U+05D9><U+05D9><U+05DD>
",return,2.655,4,2.1802,0,24,24,109,1,naalaim.ogg,naalaim,<U+05E0><U+05E2><U+05DC><U+05D9><U+05D9><U+05DD>,Object,0.115955301,NA,2,l,1213,3.083860801,NA,NA,312,26,<U+05D0><U+05D9><U+05E9><U+05D4>,TRUE
386,,NA,,NA,7,1.9548,"<U+05D0><U+05E8><U+05D9><U+05D4>
",return,1.9142,4,1.5828,0,25,25,10,1,arye.ogg,arye,<U+05D0><U+05E8><U+05D9><U+05D4>,Animal,0.164735422,NA,2,a,9646,3.984347258,NA,NA,312,26,<U+05D0><U+05D9><U+05E9><U+05D4>,TRUE
387,,NA,,NA,7,2.0321,"<U+05E1><U+05DB><U+05D9><U+05DF>
",return,2.38,7,1.7994,0,26,26,126,1,sakin.ogg,sakin,<U+05E1><U+05DB><U+05D9><U+05DF>,Object,0.089768395,NA,2,l,1042,3.017867719,NA,NA,312,26,<U+05D0><U+05D9><U+05E9><U+05D4>,TRUE
388,,NA,,NA,7,1.8028,"<U+05D7><U+05D9><U+05E4><U+05D5><U+05E9><U+05D9><U+05EA>
",return,4.0129,1,0.4845,0,27,27,65,1,khipushit.ogg,khipushit,<U+05D7><U+05D9><U+05E4><U+05D5><U+05E9><U+05D9><U+05EA>,Animal,0.081689842,NA,3,a,257,2.409933123,NA,NA,312,26,<U+05D0><U+05D9><U+05E9><U+05D4>,TRUE
389,,NA,,NA,7,1.7165,"<U+05E9><U+05E4><U+05DF>
",return,1.5149,4,1.866,0,28,28,134,1,shafan.ogg,shafan,<U+05E9><U+05E4><U+05DF>,Animal,0.087025575,NA,2,a,184,2.264817823,NA,NA,312,26,<U+05D0><U+05D9><U+05E9><U+05D4>,TRUE
390,,NA,,NA,7,1.7988,"<U+05DE><U+05D6><U+05DC><U+05D2>
",return,2.4467,4,1.9992,0,29,29,95,1,mazleg.ogg,mazleg,<U+05DE><U+05D6><U+05DC><U+05D2>,Object,0.100036196,NA,2,l,133,2.123851641,NA,NA,312,26,<U+05D0><U+05D9><U+05E9><U+05D4>,TRUE
391,,NA,,NA,7,1.6177,"<U+05DE><U+05D7><U+05D1><U+05E8><U+05EA>
",return,2.1071,4,2.0154,0,30,30,86,1,makhberet.ogg,makhberet,<U+05DE><U+05D7><U+05D1><U+05E8><U+05EA>,Object,0.093290016,NA,3,l,2348,3.370698093,NA,NA,312,26,<U+05D0><U+05D9><U+05E9><U+05D4>,TRUE
392,,NA,,NA,7,2.7683,"<U+05D0><U+05E8><U+05E0><U+05D1>
",return,3.4623,7,0.9462,0,31,31,9,1,arnav.ogg,arnav,<U+05D0><U+05E8><U+05E0><U+05D1>,Animal,0.118283436,NA,2,a,404,2.606381365,NA,NA,312,26,<U+05D0><U+05D9><U+05E9><U+05D4>,TRUE
393,,NA,,NA,7,2.1503,"<U+05DE><U+05D9><U+05DB><U+05DC>
",return,2.9306,4,2.0388,0,32,32,101,1,meykhal.ogg,meykhal,<U+05DE><U+05D9><U+05DB><U+05DC>,Object,0.106401555,NA,2,l,4043,3.606703741,NA,NA,312,26,<U+05D0><U+05D9><U+05E9><U+05D4>,TRUE
394,,NA,,NA,7,1.9337,"<U+05E7><U+05D8><U+05DC><U+05DF>
",return,7.9592,4,1.4717,0,33,33,48,1,katlan.ogg,katlan,<U+05E7><U+05D8><U+05DC><U+05DF>,Animal,0.113267794,NA,3,a,208,2.318063335,NA,NA,312,26,<U+05D0><U+05D9><U+05E9><U+05D4>,TRUE
395,,NA,,NA,7,2.166,"<U+05EA><U+05D9><U+05D1><U+05D4>
",return,1.8842,4,0.4678,0,34,34,153,1,teyva.ogg,teyva,<U+05EA><U+05D9><U+05D1><U+05D4>,Object,0.124722831,NA,2,l,627,2.797267541,NA,NA,312,26,<U+05D0><U+05D9><U+05E9><U+05D4>,TRUE
396,,NA,,NA,1,2.2372,"<U+05D3><U+05D1><U+05D9><U+05D1><U+05D5><U+05DF>
",return,4.8782,4,0.4506,0,35,35,40,1,iton.ogg,iton,<U+05E2><U+05D9><U+05EA><U+05D5><U+05DF>,Object,0.097421117,NA,2,l,5979,3.776628553,NA,NA,312,26,<U+05D0><U+05D9><U+05E9><U+05D4>,FALSE
397,,NA,,NA,7,4.1766,"<U+05D1><U+05E7><U+05D1><U+05D5><U+05E7>
",return,2.1638,4,0.8004,0,36,36,15,1,bakbuk.ogg,bakbuk,<U+05D1><U+05E7><U+05D1><U+05D5><U+05E7>,Object,0.076802008,NA,2,l,940,2.973127854,NA,NA,312,26,<U+05D0><U+05D9><U+05E9><U+05D4>,TRUE
398,,NA,,NA,7,2.0325,"<U+05D0><U+05D6><U+05E0><U+05D9><U+05D4>
",return,3.3848,4,1.5745,0,37,37,116,1,ozniya.ogg,ozniya,<U+05D0><U+05D6><U+05E0><U+05D9><U+05D4>,Object,0.103960767,NA,3,l,27,1.431363764,NA,NA,312,26,<U+05D0><U+05D9><U+05E9><U+05D4>,TRUE
399,,NA,,NA,7,1.841,"<U+05E0><U+05DE><U+05DC><U+05D4>
",return,2.0808,4,1.2331,0,38,38,112,1,nemala.ogg,nemala,<U+05E0><U+05DE><U+05DC><U+05D4>,Animal,0.120624721,NA,3,a,264,2.421603927,NA,NA,312,26,<U+05D0><U+05D9><U+05E9><U+05D4>,TRUE
400,,NA,,NA,7,2.3494,"<U+05D6><U+05D1><U+05E8><U+05D4>
",return,2.1647,4,1.2333,0,39,39,176,1,zebra.ogg,zebra,<U+05D6><U+05D1><U+05E8><U+05D4>,Animal,0.169265404,NA,2,a,190,2.278753601,NA,NA,312,26,<U+05D0><U+05D9><U+05E9><U+05D4>,TRUE
401,,NA,,NA,7,2.2669,"<U+05E7><U+05D5><U+05E4><U+05E1><U+05D4>
",return,2.7804,4,1.4497,0,40,40,77,1,kufsa.ogg,kufsa,<U+05E7><U+05D5><U+05E4><U+05E1><U+05D4>,Object,0.098435864,NA,2,l,556,2.745074792,NA,NA,312,26,<U+05D0><U+05D9><U+05E9><U+05D4>,TRUE
402,,NA,,NA,7,1.6866,"<U+05D7><U+05D5><U+05DC><U+05E6><U+05D4>
",return,2.0311,4,1.3563,0,41,41,68,1,khultza.ogg,khultza,<U+05D7><U+05D5><U+05DC><U+05E6><U+05D4>,Object,0.121153131,NA,2,l,832,2.920123326,NA,NA,312,26,<U+05D0><U+05D9><U+05E9><U+05D4>,TRUE
403,,NA,,NA,7,1.8988,"<U+05D8><U+05D9><U+05D2><U+05E8><U+05D9><U+05E1>
",return,2.3808,4,1.0506,0,42,42,154,1,tigris.ogg,tigris,<U+05D8><U+05D9><U+05D2><U+05E8><U+05D9><U+05E1>,Animal,0.084738761,NA,2,a,307,2.487138375,NA,NA,312,26,<U+05D0><U+05D9><U+05E9><U+05D4>,TRUE
404,,NA,,NA,7,2.1331,"<U+05E9><U+05D5><U+05DE><U+05DF>
",return,3.8652,4,1.284,0,43,43,142,1,shuman.ogg,shuman,<U+05E9><U+05D5><U+05DE><U+05DF>,Object,0.076844811,NA,2,l,1865,3.270678836,NA,NA,312,26,<U+05D0><U+05D9><U+05E9><U+05D4>,TRUE
405,,NA,,NA,7,2.1358,"<U+05DE><U+05E0><U+05D5><U+05E8><U+05D4>
",return,1.974,7,1.317,0,44,44,99,1,menora.ogg,menora,<U+05DE><U+05E0><U+05D5><U+05E8><U+05D4>,Object,0.109452769,NA,3,l,578,2.761927838,NA,NA,312,26,<U+05D0><U+05D9><U+05E9><U+05D4>,TRUE
406,,NA,,NA,7,1.935,"<U+05D0><U+05D5><U+05D2><U+05E8>
",return,4.6478,4,1.5831,0,45,45,114,1,oger.ogg,oger,<U+05D0><U+05D5><U+05D2><U+05E8>,Animal,0.10658478,NA,2,a,316,2.499687083,NA,NA,312,26,<U+05D0><U+05D9><U+05E9><U+05D4>,TRUE
407,,NA,,NA,1,2.4692,"<U+05D3><U+05DC><U+05EA>
",return,1.9692,4,1.1168,0,46,46,25,1,delet.ogg,delet,<U+05D3><U+05DC><U+05EA>,Object,0.105762191,NA,2,l,1923,3.283979284,NA,NA,312,26,<U+05D0><U+05D9><U+05E9><U+05D4>,TRUE
408,,NA,,NA,7,2.3011,"<U+05DB><U+05E8><U+05D9><U+05E9>
",return,2.138,4,1.6833,0,47,47,44,1,karish.ogg,karish,<U+05DB><U+05E8><U+05D9><U+05E9>,Animal,0.087359764,NA,2,a,811,2.909020854,NA,NA,312,26,<U+05D0><U+05D9><U+05E9><U+05D4>,TRUE
409,,NA,,NA,7,1.8231,"<U+05E7><U+05DC><U+05E1><U+05E8>
",return,2.3201,4,1.5329,0,48,48,73,1,klaser.ogg,klaser,<U+05E7><U+05DC><U+05E1><U+05E8>,Object,0.118595682,NA,2,l,23,1.361727836,NA,NA,312,26,<U+05D0><U+05D9><U+05E9><U+05D4>,TRUE
410,,NA,,NA,7,1.7491,"<U+05DE><U+05D7><U+05E9><U+05D1>
",return,1.9309,4,0.4844,0,49,49,87,1,makhshev.ogg,makhshev,<U+05DE><U+05D7><U+05E9><U+05D1>,Object,0.112244941,NA,2,l,7379,3.86799751,NA,NA,312,26,<U+05D0><U+05D9><U+05E9><U+05D4>,TRUE
411,,NA,,NA,7,1.9152,"<U+05D7><U+05DE><U+05D5><U+05E8>
",return,1.748,4,1.7057,0,50,50,56,1,khamor.ogg,khamor,<U+05D7><U+05DE><U+05D5><U+05E8>,Animal,0.079540603,NA,2,a,3943,3.595826777,NA,NA,312,26,<U+05D0><U+05D9><U+05E9><U+05D4>,TRUE
412,,NA,,NA,7,3.5976,"<U+05D6><U+05D1><U+05DC>
",return,2.8497,4,0.5839,0,51,51,178,1,zevel.ogg,zevel,<U+05D6><U+05D1><U+05DC>,Object,0.064413197,NA,2,l,947,2.976349979,NA,NA,312,26,<U+05D0><U+05D9><U+05E9><U+05D4>,TRUE
413,,NA,,NA,7,1.9825,"<U+05EA><U+05D5><U+05DC><U+05E2><U+05EA>
",return,3.1625,4,1.1057,0,52,52,157,1,tolaat.ogg,tolaat,<U+05EA><U+05D5><U+05DC><U+05E2><U+05EA>,Animal,0.123411298,NA,3,a,495,2.694605199,NA,NA,312,26,<U+05D0><U+05D9><U+05E9><U+05D4>,TRUE
414,,NA,,NA,7,1.8883,"<U+05E1><U+05E4><U+05DC>
",return,2.6471,4,1.5997,0,53,53,130,1,sefel.ogg,sefel,<U+05E1><U+05E4><U+05DC>,Object,0.068504706,NA,2,l,121,2.08278537,NA,NA,312,26,<U+05D0><U+05D9><U+05E9><U+05D4>,TRUE
415,,NA,,NA,7,2.0562,"<U+05DB><U+05D1><U+05E9><U+05D4>
",return,2.4809,4,1.3834,0,54,54,72,1,kivsa.ogg,kivsa,<U+05DB><U+05D1><U+05E9><U+05D4>,Animal,0.12512663,NA,2,a,2062,3.314288661,NA,NA,312,26,<U+05D0><U+05D9><U+05E9><U+05D4>,TRUE
416,,NA,,NA,7,1.856,"<U+05D7><U+05E8><U+05D3><U+05D5><U+05DF>
