,block,browser,cookies,is_fullscreen,key_press,mobile,os,responses,rt,stimulus,stimulus_block,stimulus_side,sub_block,subject,success,time_elapsed,time_post_trial,trial_began,trial_index,trial_type
0,,,,,,,,,,,,,,,TRUE,7164,,,0,fullscreen
1,,,,,,,,"{""Q0"":""5a459ab2ee927b0001e1e1e2""}",7284,,,,,,,14452,,,1,survey-text
2,,,,,,,,"{""Q0"":0}",25634,,,,,,,40088,,,2,survey-likert
3,,,,,,,,,6229,,,,,,,46319,,,3,instructions
4,,,,,,,,,11763,,,,,,,58082,,,4,instructions
5,1,Chrome 97 (97.0.4692.99),TRUE,TRUE,P,FALSE,Windows 10,,3837.8,f42887_e_040.jpg,10controlWhere,0,2,34,,62353,400,0,5,bRMS
6,1,Chrome 97 (97.0.4692.99),TRUE,TRUE,Q,FALSE,Windows 10,,1692.5,f42887_e_030.jpg,10controlWhere,1,2,34,,64704,400,0,6,bRMS
7,1,Chrome 97 (97.0.4692.99),TRUE,TRUE,Q,FALSE,Windows 10,,1853.3,f42887_e_110.jpg,10controlWhere,1,2,34,,67272,400,0,7,bRMS
8,1,Chrome 97 (97.0.4692.99),TRUE,TRUE,P,FALSE,Windows 10,,1477.7,df42887_e_245.jpg,10controlWhere,0,2,34,,69438,400,0,8,bRMS
9,1,Chrome 97 (97.0.4692.99),TRUE,TRUE,Q,FALSE,Windows 10,,966.8,f42887_e_180.jpg,10controlWhere,1,2,34,,71081,400,0,9,bRMS
10,1,Chrome 97 (97.0.4692.99),TRUE,TRUE,Q,FALSE,Windows 10,,1085.6,df42887_e_195.jpg,10controlWhere,1,2,34,,72865,400,0,10,bRMS
11,1,Chrome 97 (97.0.4692.99),TRUE,TRUE,P,FALSE,Windows 10,,960.3,df42887_e_205.jpg,10controlWhere,0,2,34,,74511,400,0,11,bRMS
12,1,Chrome 97 (97.0.4692.99),TRUE,TRUE,Q,FALSE,Windows 10,,790.3,df42887_e_015.jpg,10controlWhere,1,2,34,,75975,400,0,12,bRMS
13,1,Chrome 97 (97.0.4692.99),TRUE,TRUE,Q,FALSE,Windows 10,,991.6,f42887_e_250.jpg,10controlWhere,1,2,34,,77678,400,0,13,bRMS
14,1,Chrome 97 (97.0.4692.99),TRUE,TRUE,Q,FALSE,Windows 10,,917.4,f42887_e_220.jpg,10controlWhere,1,2,34,,79307,400,0,14,bRMS
15,1,Chrome 97 (97.0.4692.99),TRUE,TRUE,Q,FALSE,Windows 10,,1135.8,df42887_e_235.jpg,10controlWhere,1,2,34,,81125,400,0,15,bRMS
16,1,Chrome 97 (97.0.4692.99),TRUE,TRUE,Q,FALSE,Windows 10,,1235.6,f42887_e_130.jpg,10controlWhere,1,2,34,,83090,400,0,16,bRMS
17,1,Chrome 97 (97.0.4692.99),TRUE,TRUE,P,FALSE,Windows 10,,1166.7,df42887_e_145.jpg,10controlWhere,0,2,34,,84963,400,0,17,bRMS
18,1,Chrome 97 (97.0.4692.99),TRUE,TRUE,P,FALSE,Windows 10,,838.9,df42887_e_265.jpg,10controlWhere,0,2,34,,86473,400,0,18,bRMS
19,1,Chrome 97 (97.0.4692.99),TRUE,TRUE,P,FALSE,Windows 10,,861.6,f42887_e_020.jpg,10controlWhere,0,2,34,,88047,400,0,19,bRMS
20,1,Chrome 97 (97.0.4692.99),TRUE,TRUE,P,FALSE,Windows 10,,860.5,df42887_e_105.jpg,10controlWhere,1,2,34,,89593,400,0,20,bRMS
21,1,Chrome 97 (97.0.4692.99),TRUE,TRUE,P,FALSE,Windows 10,,766.3,df42887_e_225.jpg,10controlWhere,1,2,34,,91045,400,0,21,bRMS
22,1,Chrome 97 (97.0.4692.99),TRUE,TRUE,Q,FALSE,Windows 10,,1263.5,f42887_e_260.jpg,10controlWhere,1,2,34,,93025,400,0,22,bRMS
23,1,Chrome 97 (97.0.4692.99),TRUE,TRUE,Q,FALSE,Windows 10,,957.4,f42887_e_200.jpg,10controlWhere,0,2,34,,94664,400,0,23,bRMS
24,1,Chrome 97 (97.0.4692.99),TRUE,TRUE,Q,FALSE,Windows 10,,1437.3,f42887_e_210.jpg,10controlWhere,1,2,34,,96780,400,0,24,bRMS
25,1,Chrome 97 (97.0.4692.99),TRUE,TRUE,Q,FALSE,Windows 10,,1088.6,f42887_e_280.jpg,10controlWhere,1,2,34,,98595,400,0,25,bRMS
26,1,Chrome 97 (97.0.4692.99),TRUE,TRUE,Q,FALSE,Windows 10,,863.9,df42887_e_185.jpg,10controlWhere,0,2,34,,100146,400,0,26,bRMS
27,1,Chrome 97 (97.0.4692.99),TRUE,TRUE,P,FALSE,Windows 10,,1028.2,df42887_e_005.jpg,10controlWhere,0,2,34,,101878,400,0,27,bRMS
28,1,Chrome 97 (97.0.4692.99),TRUE,TRUE,Q,FALSE,Windows 10,,989,df42887_e_295.jpg,10controlWhere,1,2,34,,103594,400,0,28,bRMS
29,1,Chrome 97 (97.0.4692.99),TRUE,TRUE,Q,FALSE,Windows 10,,981.9,df42887_e_115.jpg,10controlWhere,0,2,34,,105260,400,0,29,bRMS
30,1,Chrome 97 (97.0.4692.99),TRUE,TRUE,P,FALSE,Windows 10,,880.1,f42887_e_170.jpg,10controlWhere,0,2,34,,106876,400,0,30,bRMS
31,1,Chrome 97 (97.0.4692.99),TRUE,TRUE,P,FALSE,Windows 10,,844.8,f42887_e_100.jpg,10controlWhere,0,2,34,,108426,400,0,31,bRMS
32,1,Chrome 97 (97.0.4692.99),TRUE,TRUE,Q,FALSE,Windows 10,,834.2,f42887_e_050.jpg,10controlWhere,1,2,34,,109934,400,0,32,bRMS
33,1,Chrome 97 (97.0.4692.99),TRUE,TRUE,Q,FALSE,Windows 10,,916.6,df42887_e_075.jpg,10controlWhere,1,2,34,,111569,400,0,33,bRMS
34,1,Chrome 97 (97.0.4692.99),TRUE,TRUE,Q,FALSE,Windows 10,,667.1,f42887_e_010.jpg,10controlWhere,1,2,34,,112915,400,0,34,bRMS
35,1,Chrome 97 (97.0.4692.99),TRUE,TRUE,Q,FALSE,Windows 10,,1113.8,df42887_e_045.jpg,10controlWhere,1,2,34,,114769,400,0,35,bRMS
36,1,Chrome 97 (97.0.4692.99),TRUE,TRUE,Q,FALSE,Windows 10,,1139.5,f42887_e_140.jpg,10controlWhere,0,2,34,,116629,400,0,36,bRMS
37,1,Chrome 97 (97.0.4692.99),TRUE,TRUE,Q,FALSE,Windows 10,,840.8,df42887_e_165.jpg,10controlWhere,1,2,34,,118138,400,0,37,bRMS
38,1,Chrome 97 (97.0.4692.99),TRUE,TRUE,Q,FALSE,Windows 10,,859.9,df42887_e_155.jpg,10controlWhere,1,2,34,,119714,400,0,38,bRMS
39,1,Chrome 97 (97.0.4692.99),TRUE,TRUE,Q,FALSE,Windows 10,,678.6,df42887_e_025.jpg,10controlWhere,1,2,34,,121078,400,0,39,bRMS
40,1,Chrome 97 (97.0.4692.99),TRUE,TRUE,P,FALSE,Windows 10,,1217,f42887_e_000.jpg,10controlWhere,0,2,34,,122969,400,0,40,bRMS
41,1,Chrome 97 (97.0.4692.99),TRUE,TRUE,Q,FALSE,Windows 10,,887.4,f42887_e_060.jpg,10controlWhere,1,2,34,,124547,400,0,41,bRMS
42,1,Chrome 97 (97.0.4692.99),TRUE,TRUE,Q,FALSE,Windows 10,,944.8,f42887_e_190.jpg,10controlWhere,1,2,34,,126186,400,0,42,bRMS
43,1,Chrome 97 (97.0.4692.99),TRUE,TRUE,Q,FALSE,Windows 10,,692.8,f42887_e_150.jpg,10controlWhere,1,2,34,,127658,400,0,43,bRMS
44,1,Chrome 97 (97.0.4692.99),TRUE,TRUE,Q,FALSE,Windows 10,,1043.4,df42887_e_095.jpg,10controlWhere,0,2,34,,129406,400,0,44,bRMS
45,1,Chrome 97 (97.0.4692.99),TRUE,TRUE,P,FALSE,Windows 10,,1099,f42887_e_230.jpg,10controlWhere,0,2,34,,131195,400,0,45,bRMS
46,1,Chrome 97 (97.0.4692.99),TRUE,TRUE,Q,FALSE,Windows 10,,879.5,f42887_e_080.jpg,10controlWhere,1,2,34,,132796,400,0,46,bRMS
47,1,Chrome 97 (97.0.4692.99),TRUE,TRUE,Q,FALSE,Windows 10,,969.2,df42887_e_255.jpg,10controlWhere,1,2,34,,134441,400,0,47,bRMS
48,1,Chrome 97 (97.0.4692.99),TRUE,TRUE,Q,FALSE,Windows 10,,728.1,f42887_e_070.jpg,10controlWhere,1,2,34,,135880,400,0,48,bRMS
49,1,Chrome 97 (97.0.4692.99),TRUE,TRUE,P,FALSE,Windows 10,,864.4,f42887_e_290.jpg,10controlWhere,0,2,34,,137448,400,0,49,bRMS
50,1,Chrome 97 (97.0.4692.99),TRUE,TRUE,Q,FALSE,Windows 10,,1152.3,f42887_e_090.jpg,10controlWhere,0,2,34,,139297,400,0,50,bRMS
51,1,Chrome 97 (97.0.4692.99),TRUE,TRUE,P,FALSE,Windows 10,,1201.3,df42887_e_065.jpg,10controlWhere,0,2,34,,141173,400,0,51,bRMS
52,1,Chrome 97 (97.0.4692.99),TRUE,TRUE,P,FALSE,Windows 10,,1968.8,df42887_e_135.jpg,10controlWhere,0,2,34,,143881,400,0,52,bRMS
53,1,Chrome 97 (97.0.4692.99),TRUE,TRUE,Q,FALSE,Windows 10,,937.9,f42887_e_270.jpg,10controlWhere,1,2,34,,145532,400,0,53,bRMS
54,1,Chrome 97 (97.0.4692.99),TRUE,TRUE,P,FALSE,Windows 10,,1129.1,f42887_e_160.jpg,10controlWhere,0,2,34,,147351,400,0,54,bRMS
55,1,Chrome 97 (97.0.4692.99),TRUE,TRUE,P,FALSE,Windows 10,,1163.1,df42887_e_085.jpg,10controlWhere,1,2,34,,149226,400,0,55,bRMS
56,1,Chrome 97 (97.0.4692.99),TRUE,TRUE,P,FALSE,Windows 10,,1071.6,df42887_e_055.jpg,10controlWhere,0,2,34,,150975,400,0,56,bRMS
57,1,Chrome 97 (97.0.4692.99),TRUE,TRUE,Q,FALSE,Windows 10,,1078.9,df42887_e_275.jpg,10controlWhere,1,2,34,,152744,400,0,57,bRMS
58,1,Chrome 97 (97.0.4692.99),TRUE,TRUE,P,FALSE,Windows 10,,1111,f42887_e_120.jpg,10controlWhere,0,2,34,,154570,400,0,58,bRMS
59,1,Chrome 97 (97.0.4692.99),TRUE,TRUE,P,FALSE,Windows 10,,1205.2,df42887_e_285.jpg,10controlWhere,0,2,34,,156463,400,0,59,bRMS
60,1,Chrome 97 (97.0.4692.99),TRUE,TRUE,P,FALSE,Windows 10,,1103.5,df42887_e_215.jpg,10controlWhere,0,2,34,,158349,400,0,60,bRMS
61,1,Chrome 97 (97.0.4692.99),TRUE,TRUE,Q,FALSE,Windows 10,,970.2,f42887_e_240.jpg,10controlWhere,1,2,34,,160023,400,0,61,bRMS
62,1,Chrome 97 (97.0.4692.99),TRUE,TRUE,Q,FALSE,Windows 10,,856,df42887_e_035.jpg,10controlWhere,1,2,34,,161603,400,0,62,bRMS
63,1,Chrome 97 (97.0.4692.99),TRUE,TRUE,Q,FALSE,Windows 10,,651.3,df42887_e_175.jpg,10controlWhere,1,2,34,,162956,400,0,63,bRMS
64,1,Chrome 97 (97.0.4692.99),TRUE,TRUE,Q,FALSE,Windows 10,,912.9,df42887_e_125.jpg,10controlWhere,0,2,34,,164552,400,0,64,bRMS
65,,,,,,,,,7460,,,,,,,172423,,,65,instructions
66,1,Chrome 97 (97.0.4692.99),TRUE,TRUE,P,FALSE,Windows 10,,1463.7,df42887_e_021.jpg,10Where,0,3,34,,174144,400,0,66,bRMS
67,1,Chrome 97 (97.0.4692.99),TRUE,TRUE,Q,FALSE,Windows 10,,984.5,f42887_e_106.jpg,10Where,1,3,34,,175819,400,0,67,bRMS
68,1,Chrome 97 (97.0.4692.99),TRUE,TRUE,P,FALSE,Windows 10,,1076.3,f42887_e_196.jpg,10Where,0,3,34,,177603,400,0,68,bRMS
69,1,Chrome 97 (97.0.4692.99),TRUE,TRUE,Q,FALSE,Windows 10,,1095.5,f42887_e_046.jpg,10Where,0,3,34,,179421,400,0,69,bRMS
70,1,Chrome 97 (97.0.4692.99),TRUE,TRUE,P,FALSE,Windows 10,,1091,f42887_e_216.jpg,10Where,0,3,34,,181203,400,0,70,bRMS
71,1,Chrome 97 (97.0.4692.99),TRUE,TRUE,P,FALSE,Windows 10,,1152,df42887_e_151.jpg,10Where,0,3,34,,183062,400,0,71,bRMS
72,1,Chrome 97 (97.0.4692.99),TRUE,TRUE,Q,FALSE,Windows 10,,851.5,f42887_e_126.jpg,10Where,1,3,34,,184602,400,0,72,bRMS
73,1,Chrome 97 (97.0.4692.99),TRUE,TRUE,P,FALSE,Windows 10,,971.8,df42887_e_171.jpg,10Where,0,3,34,,186252,400,0,73,bRMS
74,1,Chrome 97 (97.0.4692.99),TRUE,TRUE,P,FALSE,Windows 10,,1040.3,f42887_e_116.jpg,10Where,0,3,34,,188000,400,0,74,bRMS
75,1,Chrome 97 (97.0.4692.99),TRUE,TRUE,Q,FALSE,Windows 10,,883.9,df42887_e_131.jpg,10Where,1,3,34,,189657,400,0,75,bRMS
76,1,Chrome 97 (97.0.4692.99),TRUE,TRUE,Q,FALSE,Windows 10,,778.9,f42887_e_266.jpg,10Where,1,3,34,,191116,400,0,76,bRMS
77,1,Chrome 97 (97.0.4692.99),TRUE,TRUE,Q,FALSE,Windows 10,,844.2,df42887_e_241.jpg,10Where,1,3,34,,192622,400,0,77,bRMS
78,1,Chrome 97 (97.0.4692.99),TRUE,TRUE,Q,FALSE,Windows 10,,691.1,f42887_e_176.jpg,10Where,1,3,34,,194019,400,0,78,bRMS
79,1,Chrome 97 (97.0.4692.99),TRUE,TRUE,P,FALSE,Windows 10,,828,f42887_e_156.jpg,10Where,0,3,34,,195538,400,0,79,bRMS
80,1,Chrome 97 (97.0.4692.99),TRUE,TRUE,Q,FALSE,Windows 10,,888.9,f42887_e_166.jpg,10Where,1,3,34,,197105,400,0,80,bRMS
81,1,Chrome 97 (97.0.4692.99),TRUE,TRUE,Q,FALSE,Windows 10,,861.7,f42887_e_096.jpg,10Where,1,3,34,,198676,400,0,81,bRMS
82,1,Chrome 97 (97.0.4692.99),TRUE,TRUE,Q,FALSE,Windows 10,,820.8,f42887_e_026.jpg,10Where,1,3,34,,200174,400,0,82,bRMS
83,1,Chrome 97 (97.0.4692.99),TRUE,TRUE,P,FALSE,Windows 10,,818,f42887_e_296.jpg,10Where,0,3,34,,201654,400,0,83,bRMS
84,1,Chrome 97 (97.0.4692.99),TRUE,TRUE,Q,FALSE,Windows 10,,758.1,df42887_e_061.jpg,10Where,1,3,34,,203150,400,0,84,bRMS
85,1,Chrome 97 (97.0.4692.99),TRUE,TRUE,Q,FALSE,Windows 10,,660.2,df42887_e_051.jpg,10Where,1,3,34,,204506,400,0,85,bRMS
86,1,Chrome 97 (97.0.4692.99),TRUE,TRUE,Q,FALSE,Windows 10,,845.7,f42887_e_236.jpg,10Where,1,3,34,,206037,400,0,86,bRMS
87,1,Chrome 97 (97.0.4692.99),TRUE,TRUE,Q,FALSE,Windows 10,,911,df42887_e_111.jpg,10Where,0,3,34,,207652,400,0,87,bRMS
88,1,Chrome 97 (97.0.4692.99),TRUE,TRUE,Q,FALSE,Windows 10,,729.8,f42887_e_206.jpg,10Where,1,3,34,,209068,400,0,88,bRMS
89,1,Chrome 97 (97.0.4692.99),TRUE,TRUE,Q,FALSE,Windows 10,,689.5,f42887_e_136.jpg,10Where,1,3,34,,210431,400,0,89,bRMS
90,1,Chrome 97 (97.0.4692.99),TRUE,TRUE,Q,FALSE,Windows 10,,691,df42887_e_161.jpg,10Where,1,3,34,,211836,400,0,90,bRMS
91,1,Chrome 97 (97.0.4692.99),TRUE,TRUE,Q,FALSE,Windows 10,,795.4,df42887_e_011.jpg,10Where,0,3,34,,213333,400,0,91,bRMS
92,1,Chrome 97 (97.0.4692.99),TRUE,TRUE,Q,FALSE,Windows 10,,1191.9,df42887_e_221.jpg,10Where,1,3,34,,215208,400,0,92,bRMS
93,1,Chrome 97 (97.0.4692.99),TRUE,TRUE,Q,FALSE,Windows 10,,724.4,f42887_e_276.jpg,10Where,0,3,34,,216648,400,0,93,bRMS
94,1,Chrome 97 (97.0.4692.99),TRUE,TRUE,Q,FALSE,Windows 10,,1088.2,df42887_e_101.jpg,10Where,1,3,34,,218440,400,0,94,bRMS
95,1,Chrome 97 (97.0.4692.99),TRUE,TRUE,Q,FALSE,Windows 10,,954.6,df42887_e_041.jpg,10Where,1,3,34,,220095,400,0,95,bRMS
96,1,Chrome 97 (97.0.4692.99),TRUE,TRUE,Q,FALSE,Windows 10,,765.8,f42887_e_286.jpg,10Where,1,3,34,,221578,400,0,96,bRMS
97,1,Chrome 97 (97.0.4692.99),TRUE,TRUE,P,FALSE,Windows 10,,814.6,df42887_e_141.jpg,10Where,1,3,34,,223091,400,0,97,bRMS
98,1,Chrome 97 (97.0.4692.99),TRUE,TRUE,Q,FALSE,Windows 10,,1095,df42887_e_091.jpg,10Where,1,3,34,,224857,400,0,98,bRMS
99,1,Chrome 97 (97.0.4692.99),TRUE,TRUE,Q,FALSE,Windows 10,,784.7,f42887_e_256.jpg,10Where,1,3,34,,226353,400,0,99,bRMS
100,1,Chrome 97 (97.0.4692.99),TRUE,TRUE,P,FALSE,Windows 10,,1386.8,df42887_e_191.jpg,10Where,0,3,34,,228434,400,0,100,bRMS
101,1,Chrome 97 (97.0.4692.99),TRUE,TRUE,P,FALSE,Windows 10,,1074.3,df42887_e_271.jpg,10Where,0,3,34,,230240,400,0,101,bRMS
102,1,Chrome 97 (97.0.4692.99),TRUE,TRUE,P,FALSE,Windows 10,,1401.9,df42887_e_291.jpg,10Where,0,3,34,,232336,400,0,102,bRMS
103,1,Chrome 97 (97.0.4692.99),TRUE,TRUE,Q,FALSE,Windows 10,,874,df42887_e_231.jpg,10Where,1,3,34,,233895,400,0,103,bRMS
104,1,Chrome 97 (97.0.4692.99),TRUE,TRUE,P,FALSE,Windows 10,,849.8,f42887_e_066.jpg,10Where,0,3,34,,235457,400,0,104,bRMS
105,1,Chrome 97 (97.0.4692.99),TRUE,TRUE,P,FALSE,Windows 10,,1035.5,f42887_e_076.jpg,10Where,0,3,34,,237168,400,0,105,bRMS
106,1,Chrome 97 (97.0.4692.99),TRUE,TRUE,Q,FALSE,Windows 10,,875.5,f42887_e_186.jpg,10Where,1,3,34,,238726,400,0,106,bRMS
107,1,Chrome 97 (97.0.4692.99),TRUE,TRUE,Q,FALSE,Windows 10,,756,f42887_e_006.jpg,10Where,1,3,34,,240185,400,0,107,bRMS
108,1,Chrome 97 (97.0.4692.99),TRUE,TRUE,P,FALSE,Windows 10,,1177,df42887_e_251.jpg,10Where,0,3,34,,242052,400,0,108,bRMS
109,1,Chrome 97 (97.0.4692.99),TRUE,TRUE,Q,FALSE,Windows 10,,839.3,df42887_e_071.jpg,10Where,1,3,34,,243587,400,0,109,bRMS
110,1,Chrome 97 (97.0.4692.99),TRUE,TRUE,P,FALSE,Windows 10,,708.6,f42887_e_016.jpg,10Where,1,3,34,,244995,400,0,110,bRMS
111,1,Chrome 97 (97.0.4692.99),TRUE,TRUE,P,FALSE,Windows 10,,1081.4,df42887_e_031.jpg,10Where,0,3,34,,246766,400,0,111,bRMS
112,1,Chrome 97 (97.0.4692.99),TRUE,TRUE,Q,FALSE,Windows 10,,884.3,df42887_e_201.jpg,10Where,1,3,34,,248345,400,0,112,bRMS
113,1,Chrome 97 (97.0.4692.99),TRUE,TRUE,Q,FALSE,Windows 10,,686.3,df42887_e_081.jpg,10Where,1,3,34,,249738,400,0,113,bRMS
114,1,Chrome 97 (97.0.4692.99),TRUE,TRUE,Q,FALSE,Windows 10,,735.5,f42887_e_086.jpg,10Where,1,3,34,,251185,400,0,114,bRMS
115,1,Chrome 97 (97.0.4692.99),TRUE,TRUE,P,FALSE,Windows 10,,816.5,f42887_e_036.jpg,10Where,0,3,34,,252685,400,0,115,bRMS
116,1,Chrome 97 (97.0.4692.99),TRUE,TRUE,Q,FALSE,Windows 10,,1005.4,df42887_e_121.jpg,10Where,1,3,34,,254422,400,0,116,bRMS
117,1,Chrome 97 (97.0.4692.99),TRUE,TRUE,Q,FALSE,Windows 10,,668.4,f42887_e_226.jpg,10Where,1,3,34,,255786,400,0,117,bRMS
118,1,Chrome 97 (97.0.4692.99),TRUE,TRUE,Q,FALSE,Windows 10,,765.1,f42887_e_146.jpg,10Where,0,3,34,,257297,400,0,118,bRMS
119,1,Chrome 97 (97.0.4692.99),TRUE,TRUE,Q,FALSE,Windows 10,,966.9,f42887_e_056.jpg,10Where,0,3,34,,258946,400,0,119,bRMS
120,1,Chrome 97 (97.0.4692.99),TRUE,TRUE,Q,FALSE,Windows 10,,1090,df42887_e_211.jpg,10Where,1,3,34,,260701,400,0,120,bRMS
121,1,Chrome 97 (97.0.4692.99),TRUE,TRUE,Q,FALSE,Windows 10,,831.6,f42887_e_246.jpg,10Where,1,3,34,,262234,400,0,121,bRMS
122,1,Chrome 97 (97.0.4692.99),TRUE,TRUE,Q,FALSE,Windows 10,,1022.2,df42887_e_181.jpg,10Where,1,3,34,,263959,400,0,122,bRMS
123,1,Chrome 97 (97.0.4692.99),TRUE,TRUE,P,FALSE,Windows 10,,1223.5,df42887_e_001.jpg,10Where,0,3,34,,265866,400,0,123,bRMS
124,1,Chrome 97 (97.0.4692.99),TRUE,TRUE,Q,FALSE,Windows 10,,857.7,df42887_e_261.jpg,10Where,1,3,34,,267446,400,0,124,bRMS
125,1,Chrome 97 (97.0.4692.99),TRUE,TRUE,P,FALSE,Windows 10,,1008.1,df42887_e_281.jpg,10Where,0,3,34,,269128,400,0,125,bRMS
126,,,,,,,,,13753,,,,,,,283286,,,126,instructions
127,1,Chrome 97 (97.0.4692.99),TRUE,TRUE,P,FALSE,Windows 10,,1044.5,f42887_e_172.jpg,5Where,0,4,34,,284612,400,0,127,bRMS
128,1,Chrome 97 (97.0.4692.99),TRUE,TRUE,P,FALSE,Windows 10,,969.7,f42887_e_202.jpg,5Where,0,4,34,,286297,400,0,128,bRMS
129,1,Chrome 97 (97.0.4692.99),TRUE,TRUE,P,FALSE,Windows 10,,1158,f42887_e_212.jpg,5Where,0,4,34,,288189,400,0,129,bRMS
130,1,Chrome 97 (97.0.4692.99),TRUE,TRUE,P,FALSE,Windows 10,,971.8,df42887_e_057.jpg,5Where,0,4,34,,289844,400,0,130,bRMS
131,1,Chrome 97 (97.0.4692.99),TRUE,TRUE,P,FALSE,Windows 10,,757.2,df42887_e_007.jpg,5Where,1,4,34,,291305,400,0,131,bRMS
132,1,Chrome 97 (97.0.4692.99),TRUE,TRUE,P,FALSE,Windows 10,,956,df42887_e_277.jpg,5Where,0,4,34,,292946,400,0,132,bRMS
133,1,Chrome 97 (97.0.4692.99),TRUE,TRUE,P,FALSE,Windows 10,,1019.3,f42887_e_052.jpg,5Where,0,4,34,,294678,400,0,133,bRMS
134,1,Chrome 97 (97.0.4692.99),TRUE,TRUE,Q,FALSE,Windows 10,,1098.5,f42887_e_122.jpg,5Where,1,4,34,,296480,400,0,134,bRMS
135,1,Chrome 97 (97.0.4692.99),TRUE,TRUE,P,FALSE,Windows 10,,1126.7,df42887_e_027.jpg,5Where,0,4,34,,298300,400,0,135,bRMS
136,1,Chrome 97 (97.0.4692.99),TRUE,TRUE,Q,FALSE,Windows 10,,801.9,df42887_e_257.jpg,5Where,0,4,34,,299834,400,0,136,bRMS
137,1,Chrome 97 (97.0.4692.99),TRUE,TRUE,P,FALSE,Windows 10,,1105.4,df42887_e_197.jpg,5Where,0,4,34,,301626,400,0,137,bRMS
138,1,Chrome 97 (97.0.4692.99),TRUE,TRUE,Q,FALSE,Windows 10,,976.4,df42887_e_207.jpg,5Where,0,4,34,,303284,400,0,138,bRMS
139,1,Chrome 97 (97.0.4692.99),TRUE,TRUE,P,FALSE,Windows 10,,1054.6,df42887_e_247.jpg,5Where,1,4,34,,305065,400,0,139,bRMS
140,1,Chrome 97 (97.0.4692.99),TRUE,TRUE,P,FALSE,Windows 10,,2055.7,df42887_e_157.jpg,5Where,0,4,34,,307830,400,0,140,bRMS
141,1,Chrome 97 (97.0.4692.99),TRUE,TRUE,P,FALSE,Windows 10,,1230.8,df42887_e_087.jpg,5Where,0,4,34,,309717,400,0,141,bRMS
142,1,Chrome 97 (97.0.4692.99),TRUE,TRUE,Q,FALSE,Windows 10,,1046,df42887_e_097.jpg,5Where,1,4,34,,311482,400,0,142,bRMS
143,1,Chrome 97 (97.0.4692.99),TRUE,TRUE,Q,FALSE,Windows 10,,1077.6,df42887_e_067.jpg,5Where,1,4,34,,313250,400,0,143,bRMS
144,1,Chrome 97 (97.0.4692.99),TRUE,TRUE,Q,FALSE,Windows 10,,1008.7,f42887_e_132.jpg,5Where,1,4,34,,314969,400,0,144,bRMS
145,1,Chrome 97 (97.0.4692.99),TRUE,TRUE,Q,FALSE,Windows 10,,1310.7,f42887_e_112.jpg,5Where,1,4,34,,316961,400,0,145,bRMS
146,1,Chrome 97 (97.0.4692.99),TRUE,TRUE,P,FALSE,Windows 10,,995.1,df42887_e_237.jpg,5Where,0,4,34,,318618,400,0,146,bRMS
147,1,Chrome 97 (97.0.4692.99),TRUE,TRUE,Q,FALSE,Windows 10,,1147,f42887_e_102.jpg,5Where,1,4,34,,320464,400,0,147,bRMS
148,1,Chrome 97 (97.0.4692.99),TRUE,TRUE,P,FALSE,Windows 10,,920.2,f42887_e_232.jpg,5Where,0,4,34,,322103,400,0,148,bRMS
149,1,Chrome 97 (97.0.4692.99),TRUE,TRUE,P,FALSE,Windows 10,,735.3,f42887_e_142.jpg,5Where,0,4,34,,323530,400,0,149,bRMS
150,1,Chrome 97 (97.0.4692.99),TRUE,TRUE,Q,FALSE,Windows 10,,1043.5,f42887_e_072.jpg,5Where,1,4,34,,325292,400,0,150,bRMS
151,1,Chrome 97 (97.0.4692.99),TRUE,TRUE,P,FALSE,Windows 10,,828.6,f42887_e_272.jpg,5Where,0,4,34,,326800,400,0,151,bRMS
152,1,Chrome 97 (97.0.4692.99),TRUE,TRUE,P,FALSE,Windows 10,,954.4,df42887_e_287.jpg,5Where,1,4,34,,328445,400,0,152,bRMS
153,1,Chrome 97 (97.0.4692.99),TRUE,TRUE,P,FALSE,Windows 10,,929.9,f42887_e_282.jpg,5Where,1,4,34,,330095,400,0,153,bRMS
154,1,Chrome 97 (97.0.4692.99),TRUE,TRUE,Q,FALSE,Windows 10,,1193.9,f42887_e_162.jpg,5Where,1,4,34,,331960,400,0,154,bRMS
155,1,Chrome 97 (97.0.4692.99),TRUE,TRUE,Q,FALSE,Windows 10,,991.9,f42887_e_042.jpg,5Where,1,4,34,,333628,400,0,155,bRMS
156,1,Chrome 97 (97.0.4692.99),TRUE,TRUE,Q,FALSE,Windows 10,,1244.5,df42887_e_037.jpg,5Where,1,4,34,,335595,400,0,156,bRMS
157,1,Chrome 97 (97.0.4692.99),TRUE,TRUE,P,FALSE,Windows 10,,1138.7,df42887_e_117.jpg,5Where,0,4,34,,337420,400,0,157,bRMS
158,1,Chrome 97 (97.0.4692.99),TRUE,TRUE,Q,FALSE,Windows 10,,1328.7,f42887_e_192.jpg,5Where,1,4,34,,339468,400,0,158,bRMS
159,1,Chrome 97 (97.0.4692.99),TRUE,TRUE,P,FALSE,Windows 10,,1023.7,f42887_e_092.jpg,5Where,0,4,34,,341181,400,0,159,bRMS
160,1,Chrome 97 (97.0.4692.99),TRUE,TRUE,Q,FALSE,Windows 10,,957.2,df42887_e_167.jpg,5Where,1,4,34,,342834,400,0,160,bRMS
161,1,Chrome 97 (97.0.4692.99),TRUE,TRUE,Q,FALSE,Windows 10,,1011.7,df42887_e_227.jpg,5Where,1,4,34,,344585,400,0,161,bRMS
162,1,Chrome 97 (97.0.4692.99),TRUE,TRUE,P,FALSE,Windows 10,,878.8,df42887_e_267.jpg,5Where,0,4,34,,346188,400,0,162,bRMS
163,1,Chrome 97 (97.0.4692.99),TRUE,TRUE,Q,FALSE,Windows 10,,1058.4,f42887_e_242.jpg,5Where,1,4,34,,347920,400,0,163,bRMS
164,1,Chrome 97 (97.0.4692.99),TRUE,TRUE,Q,FALSE,Windows 10,,768,df42887_e_107.jpg,5Where,0,4,34,,349380,400,0,164,bRMS
165,1,Chrome 97 (97.0.4692.99),TRUE,TRUE,P,FALSE,Windows 10,,1145.9,df42887_e_137.jpg,5Where,0,4,34,,351247,400,0,165,bRMS
166,1,Chrome 97 (97.0.4692.99),TRUE,TRUE,Q,FALSE,Windows 10,,1121.9,f42887_e_222.jpg,5Where,1,4,34,,353063,400,0,166,bRMS
167,1,Chrome 97 (97.0.4692.99),TRUE,TRUE,P,FALSE,Windows 10,,1069.3,f42887_e_002.jpg,5Where,0,4,34,,354849,400,0,167,bRMS
168,1,Chrome 97 (97.0.4692.99),TRUE,TRUE,Q,FALSE,Windows 10,,944.8,df42887_e_077.jpg,5Where,0,4,34,,356514,400,0,168,bRMS
169,1,Chrome 97 (97.0.4692.99),TRUE,TRUE,Q,FALSE,Windows 10,,1211.9,df42887_e_017.jpg,5Where,1,4,34,,358432,400,0,169,bRMS
170,1,Chrome 97 (97.0.4692.99),TRUE,TRUE,P,FALSE,Windows 10,,1014.7,f42887_e_062.jpg,5Where,0,4,34,,360144,400,0,170,bRMS
171,1,Chrome 97 (97.0.4692.99),TRUE,TRUE,Q,FALSE,Windows 10,,759,f42887_e_152.jpg,5Where,1,4,34,,361628,400,0,171,bRMS
172,1,Chrome 97 (97.0.4692.99),TRUE,TRUE,P,FALSE,Windows 10,,837.5,df42887_e_047.jpg,5Where,0,4,34,,363177,400,0,172,bRMS
173,1,Chrome 97 (97.0.4692.99),TRUE,TRUE,Q,FALSE,Windows 10,,881.2,df42887_e_127.jpg,5Where,1,4,34,,364751,400,0,173,bRMS
174,1,Chrome 97 (97.0.4692.99),TRUE,TRUE,Q,FALSE,Windows 10,,671.5,df42887_e_147.jpg,5Where,0,4,34,,366134,400,0,174,bRMS
175,1,Chrome 97 (97.0.4692.99),TRUE,TRUE,P,FALSE,Windows 10,,1662.3,f42887_e_012.jpg,5Where,0,4,34,,368503,400,0,175,bRMS
176,1,Chrome 97 (97.0.4692.99),TRUE,TRUE,P,FALSE,Windows 10,,837.7,f42887_e_182.jpg,5Where,0,4,34,,370039,400,0,176,bRMS
177,1,Chrome 97 (97.0.4692.99),TRUE,TRUE,P,FALSE,Windows 10,,834.6,f42887_e_022.jpg,5Where,0,4,34,,371582,400,0,177,bRMS
178,1,Chrome 97 (97.0.4692.99),TRUE,TRUE,P,FALSE,Windows 10,,687.7,f42887_e_032.jpg,5Where,1,4,34,,372945,400,0,178,bRMS
179,1,Chrome 97 (97.0.4692.99),TRUE,TRUE,Q,FALSE,Windows 10,,674.9,df42887_e_177.jpg,5Where,1,4,34,,374302,400,0,179,bRMS
180,1,Chrome 97 (97.0.4692.99),TRUE,TRUE,Q,FALSE,Windows 10,,775.5,df42887_e_217.jpg,5Where,0,4,34,,375784,400,0,180,bRMS
181,1,Chrome 97 (97.0.4692.99),TRUE,TRUE,Q,FALSE,Windows 10,,744.5,f42887_e_252.jpg,5Where,1,4,34,,377213,400,0,181,bRMS
182,1,Chrome 97 (97.0.4692.99),TRUE,TRUE,P,FALSE,Windows 10,,803,df42887_e_187.jpg,5Where,1,4,34,,378700,400,0,182,bRMS
183,1,Chrome 97 (97.0.4692.99),TRUE,TRUE,Q,FALSE,Windows 10,,1268.9,df42887_e_297.jpg,5Where,1,4,34,,380663,400,0,183,bRMS
184,1,Chrome 97 (97.0.4692.99),TRUE,TRUE,Q,FALSE,Windows 10,,1073.9,f42887_e_292.jpg,5Where,1,4,34,,382419,400,0,184,bRMS
185,1,Chrome 97 (97.0.4692.99),TRUE,TRUE,P,FALSE,Windows 10,,1077.2,f42887_e_262.jpg,5Where,0,4,34,,384198,400,0,185,bRMS
186,1,Chrome 97 (97.0.4692.99),TRUE,TRUE,Q,FALSE,Windows 10,,961.1,f42887_e_082.jpg,5Where,1,4,34,,385867,400,0,186,bRMS
187,,,,,,,,,15508,,,,,,,401779,,,187,instructions
188,2,Chrome 97 (97.0.4692.99),TRUE,TRUE,B,FALSE,Windows 10,,1214.6,df42887_e_023.jpg,10What,0,2,34,,403288,400,0,188,bRMS
189,2,Chrome 97 (97.0.4692.99),TRUE,TRUE,B,FALSE,Windows 10,,1207.9,f42887_e_178.jpg,10What,0,2,34,,405184,400,0,189,bRMS
190,2,Chrome 97 (97.0.4692.99),TRUE,TRUE,B,FALSE,Windows 10,,1774.8,df42887_e_163.jpg,10What,1,2,34,,407677,400,0,190,bRMS
191,2,Chrome 97 (97.0.4692.99),TRUE,TRUE,Y,FALSE,Windows 10,,1613.5,df42887_e_193.jpg,10What,1,2,34,,410025,400,0,191,bRMS
192,2,Chrome 97 (97.0.4692.99),TRUE,TRUE,B,FALSE,Windows 10,,1178.3,df42887_e_153.jpg,10What,1,2,34,,411887,400,0,192,bRMS
193,2,Chrome 97 (97.0.4692.99),TRUE,TRUE,B,FALSE,Windows 10,,1584.9,df42887_e_033.jpg,10What,1,2,34,,414229,400,0,193,bRMS
194,2,Chrome 97 (97.0.4692.99),TRUE,TRUE,Y,FALSE,Windows 10,,1284.4,f42887_e_208.jpg,10What,0,2,34,,416272,400,0,194,bRMS
195,2,Chrome 97 (97.0.4692.99),TRUE,TRUE,Y,FALSE,Windows 10,,1163.4,f42887_e_068.jpg,10What,0,2,34,,418112,400,0,195,bRMS
196,2,Chrome 97 (97.0.4692.99),TRUE,TRUE,Y,FALSE,Windows 10,,1371.9,f42887_e_188.jpg,10What,1,2,34,,420196,400,0,196,bRMS
197,2,Chrome 97 (97.0.4692.99),TRUE,TRUE,Y,FALSE,Windows 10,,909.2,f42887_e_048.jpg,10What,1,2,34,,421802,400,0,197,bRMS
198,2,Chrome 97 (97.0.4692.99),TRUE,TRUE,Y,FALSE,Windows 10,,1513.5,df42887_e_083.jpg,10What,0,2,34,,424007,400,0,198,bRMS
199,2,Chrome 97 (97.0.4692.99),TRUE,TRUE,B,FALSE,Windows 10,,1838.1,df42887_e_043.jpg,10What,1,2,34,,426566,400,0,199,bRMS
200,2,Chrome 97 (97.0.4692.99),TRUE,TRUE,Y,FALSE,Windows 10,,1105.8,f42887_e_268.jpg,10What,1,2,34,,428409,400,0,200,bRMS
201,2,Chrome 97 (97.0.4692.99),TRUE,TRUE,Y,FALSE,Windows 10,,861.9,f42887_e_158.jpg,10What,1,2,34,,429972,400,0,201,bRMS
202,2,Chrome 97 (97.0.4692.99),TRUE,TRUE,Y,FALSE,Windows 10,,762,f42887_e_028.jpg,10What,1,2,34,,431450,400,0,202,bRMS
203,2,Chrome 97 (97.0.4692.99),TRUE,TRUE,Y,FALSE,Windows 10,,876.7,f42887_e_108.jpg,10What,1,2,34,,433029,400,0,203,bRMS
204,2,Chrome 97 (97.0.4692.99),TRUE,TRUE,B,FALSE,Windows 10,,1031.4,df42887_e_073.jpg,10What,1,2,34,,434755,400,0,204,bRMS
205,2,Chrome 97 (97.0.4692.99),TRUE,TRUE,B,FALSE,Windows 10,,1148.7,df42887_e_243.jpg,10What,1,2,34,,436615,400,0,205,bRMS
206,2,Chrome 97 (97.0.4692.99),TRUE,TRUE,Y,FALSE,Windows 10,,992.1,f42887_e_098.jpg,10What,1,2,34,,438290,400,0,206,bRMS
207,2,Chrome 97 (97.0.4692.99),TRUE,TRUE,Y,FALSE,Windows 10,,1140.4,f42887_e_038.jpg,10What,1,2,34,,440148,400,0,207,bRMS
208,2,Chrome 97 (97.0.4692.99),TRUE,TRUE,B,FALSE,Windows 10,,1254.8,df42887_e_233.jpg,10What,0,2,34,,442112,400,0,208,bRMS
209,2,Chrome 97 (97.0.4692.99),TRUE,TRUE,B,FALSE,Windows 10,,1376,df42887_e_133.jpg,10What,1,2,34,,444158,400,0,209,bRMS
210,2,Chrome 97 (97.0.4692.99),TRUE,TRUE,B,FALSE,Windows 10,,1212.9,df42887_e_003.jpg,10What,0,2,34,,446071,400,0,210,bRMS
211,2,Chrome 97 (97.0.4692.99),TRUE,TRUE,Y,FALSE,Windows 10,,1122.9,f42887_e_228.jpg,10What,1,2,34,,447911,400,0,211,bRMS
212,2,Chrome 97 (97.0.4692.99),TRUE,TRUE,Y,FALSE,Windows 10,,828.1,f42887_e_138.jpg,10What,1,2,34,,449427,400,0,212,bRMS
213,2,Chrome 97 (97.0.4692.99),TRUE,TRUE,Y,FALSE,Windows 10,,1018.3,df42887_e_213.jpg,10What,1,2,34,,451141,400,0,213,bRMS
214,2,Chrome 97 (97.0.4692.99),TRUE,TRUE,Y,FALSE,Windows 10,,878.1,f42887_e_008.jpg,10What,1,2,34,,452730,400,0,214,bRMS
215,2,Chrome 97 (97.0.4692.99),TRUE,TRUE,Y,FALSE,Windows 10,,1137.6,f42887_e_128.jpg,10What,0,2,34,,454567,400,0,215,bRMS
216,2,Chrome 97 (97.0.4692.99),TRUE,TRUE,Y,FALSE,Windows 10,,1202.3,f42887_e_248.jpg,10What,1,2,34,,456476,400,0,216,bRMS
217,2,Chrome 97 (97.0.4692.99),TRUE,TRUE,Y,FALSE,Windows 10,,1576.6,f42887_e_258.jpg,10What,0,2,34,,458801,400,0,217,bRMS
218,2,Chrome 97 (97.0.4692.99),TRUE,TRUE,Y,FALSE,Windows 10,,1272.2,f42887_e_238.jpg,10What,1,2,34,,460741,400,0,218,bRMS
219,2,Chrome 97 (97.0.4692.99),TRUE,TRUE,B,FALSE,Windows 10,,1370.1,df42887_e_143.jpg,10What,0,2,34,,462825,400,0,219,bRMS
220,2,Chrome 97 (97.0.4692.99),TRUE,TRUE,B,FALSE,Windows 10,,1645.2,df42887_e_173.jpg,10What,1,2,34,,465177,400,0,220,bRMS
221,2,Chrome 97 (97.0.4692.99),TRUE,TRUE,Y,FALSE,Windows 10,,1083.2,f42887_e_148.jpg,10What,0,2,34,,466965,400,0,221,bRMS
222,2,Chrome 97 (97.0.4692.99),TRUE,TRUE,Y,FALSE,Windows 10,,1030.3,f42887_e_078.jpg,10What,1,2,34,,468665,400,0,222,bRMS
223,2,Chrome 97 (97.0.4692.99),TRUE,TRUE,B,FALSE,Windows 10,,1856.6,df42887_e_263.jpg,10What,1,2,34,,471248,400,0,223,bRMS
224,2,Chrome 97 (97.0.4692.99),TRUE,TRUE,Y,FALSE,Windows 10,,1564.6,df42887_e_063.jpg,10What,0,2,34,,473494,400,0,224,bRMS
225,2,Chrome 97 (97.0.4692.99),TRUE,TRUE,Y,FALSE,Windows 10,,1570.7,f42887_e_088.jpg,10What,0,2,34,,475758,400,0,225,bRMS
226,2,Chrome 97 (97.0.4692.99),TRUE,TRUE,B,FALSE,Windows 10,,1189.6,df42887_e_123.jpg,10What,0,2,34,,477674,400,0,226,bRMS
227,2,Chrome 97 (97.0.4692.99),TRUE,TRUE,B,FALSE,Windows 10,,1506.2,df42887_e_113.jpg,10What,1,2,34,,479880,400,0,227,bRMS
228,2,Chrome 97 (97.0.4692.99),TRUE,TRUE,Y,FALSE,Windows 10,,1035.7,f42887_e_278.jpg,10What,0,2,34,,481607,400,0,228,bRMS
229,2,Chrome 97 (97.0.4692.99),TRUE,TRUE,B,FALSE,Windows 10,,917.2,df42887_e_283.jpg,10What,1,2,34,,483241,400,0,229,bRMS
230,2,Chrome 97 (97.0.4692.99),TRUE,TRUE,B,FALSE,Windows 10,,1634.1,f42887_e_218.jpg,10What,1,2,34,,485564,400,0,230,bRMS
231,2,Chrome 97 (97.0.4692.99),TRUE,TRUE,Y,FALSE,Windows 10,,961.1,f42887_e_058.jpg,10What,0,2,34,,487194,400,0,231,bRMS
232,2,Chrome 97 (97.0.4692.99),TRUE,TRUE,Y,FALSE,Windows 10,,897.4,f42887_e_198.jpg,10What,0,2,34,,488792,400,0,232,bRMS
233,2,Chrome 97 (97.0.4692.99),TRUE,TRUE,B,FALSE,Windows 10,,1151.1,df42887_e_103.jpg,10What,0,2,34,,490641,400,0,233,bRMS
234,2,Chrome 97 (97.0.4692.99),TRUE,TRUE,B,FALSE,Windows 10,,1480.7,df42887_e_253.jpg,10What,0,2,34,,492829,400,0,234,bRMS
235,2,Chrome 97 (97.0.4692.99),TRUE,TRUE,B,FALSE,Windows 10,,1897.2,f42887_e_168.jpg,10What,1,2,34,,495443,400,0,235,bRMS
236,2,Chrome 97 (97.0.4692.99),TRUE,TRUE,Y,FALSE,Windows 10,,1588.4,f42887_e_018.jpg,10What,1,2,34,,497721,400,0,236,bRMS
237,2,Chrome 97 (97.0.4692.99),TRUE,TRUE,B,FALSE,Windows 10,,1109.5,df42887_e_223.jpg,10What,1,2,34,,499548,400,0,237,bRMS
238,2,Chrome 97 (97.0.4692.99),TRUE,TRUE,B,FALSE,Windows 10,,1118.7,df42887_e_293.jpg,10What,1,2,34,,501354,400,0,238,bRMS
239,2,Chrome 97 (97.0.4692.99),TRUE,TRUE,B,FALSE,Windows 10,,1304.4,df42887_e_013.jpg,10What,0,2,34,,503339,400,0,239,bRMS
240,2,Chrome 97 (97.0.4692.99),TRUE,TRUE,Y,FALSE,Windows 10,,1060.2,f42887_e_288.jpg,10What,1,2,34,,505109,400,0,240,bRMS
241,2,Chrome 97 (97.0.4692.99),TRUE,TRUE,B,FALSE,Windows 10,,1134.7,df42887_e_273.jpg,10What,0,2,34,,506950,400,0,241,bRMS
242,2,Chrome 97 (97.0.4692.99),TRUE,TRUE,B,FALSE,Windows 10,,1290.3,df42887_e_183.jpg,10What,0,2,34,,508912,400,0,242,bRMS
243,2,Chrome 97 (97.0.4692.99),TRUE,TRUE,Y,FALSE,Windows 10,,1197,f42887_e_118.jpg,10What,1,2,34,,510791,400,0,243,bRMS
244,2,Chrome 97 (97.0.4692.99),TRUE,TRUE,B,FALSE,Windows 10,,1120.8,df42887_e_093.jpg,10What,0,2,34,,512611,400,0,244,bRMS
245,2,Chrome 97 (97.0.4692.99),TRUE,TRUE,Y,FALSE,Windows 10,,1030.1,f42887_e_298.jpg,10What,1,2,34,,514317,400,0,245,bRMS
246,2,Chrome 97 (97.0.4692.99),TRUE,TRUE,B,FALSE,Windows 10,,1722,df42887_e_053.jpg,10What,1,2,34,,516718,400,0,246,bRMS
247,2,Chrome 97 (97.0.4692.99),TRUE,TRUE,B,FALSE,Windows 10,,933.9,df42887_e_203.jpg,10What,0,2,34,,518364,400,0,247,bRMS
248,,,,,,,,,11134,,,,,,,529909,,,248,instructions
249,2,Chrome 97 (97.0.4692.99),TRUE,TRUE,B,FALSE,Windows 10,,4493.5,df42887_e_289.jpg,5What,0,3,34,,534693,400,0,249,bRMS
250,2,Chrome 97 (97.0.4692.99),TRUE,TRUE,Y,FALSE,Windows 10,,1078.5,f42887_e_204.jpg,5What,0,3,34,,536489,400,0,250,bRMS
251,2,Chrome 97 (97.0.4692.99),TRUE,TRUE,Y,FALSE,Windows 10,,1325.2,f42887_e_054.jpg,5What,0,3,34,,538569,400,0,251,bRMS
252,2,Chrome 97 (97.0.4692.99),TRUE,TRUE,Y,FALSE,Windows 10,,1470.9,f42887_e_164.jpg,5What,1,3,34,,540772,400,0,252,bRMS
253,2,Chrome 97 (97.0.4692.99),TRUE,TRUE,Y,FALSE,Windows 10,,1477.8,f42887_e_144.jpg,5What,1,3,34,,542975,400,0,253,bRMS
254,2,Chrome 97 (97.0.4692.99),TRUE,TRUE,Y,FALSE,Windows 10,,1272.3,f42887_e_004.jpg,5What,1,3,34,,544965,400,0,254,bRMS
255,2,Chrome 97 (97.0.4692.99),TRUE,TRUE,B,FALSE,Windows 10,,1521.7,df42887_e_269.jpg,5What,0,3,34,,547172,400,0,255,bRMS
256,2,Chrome 97 (97.0.4692.99),TRUE,TRUE,Y,FALSE,Windows 10,,1164.5,f42887_e_194.jpg,5What,1,3,34,,549044,400,0,256,bRMS
257,2,Chrome 97 (97.0.4692.99),TRUE,TRUE,B,FALSE,Windows 10,,1069.5,df42887_e_039.jpg,5What,0,3,34,,550845,400,0,257,bRMS
258,2,Chrome 97 (97.0.4692.99),TRUE,TRUE,Y,FALSE,Windows 10,,1908.1,f42887_e_154.jpg,5What,0,3,34,,553478,400,0,258,bRMS
259,2,Chrome 97 (97.0.4692.99),TRUE,TRUE,Y,FALSE,Windows 10,,1334.6,f42887_e_264.jpg,5What,1,3,34,,555547,400,0,259,bRMS
260,2,Chrome 97 (97.0.4692.99),TRUE,TRUE,Y,FALSE,Windows 10,,2036.1,f42887_e_014.jpg,5What,1,3,34,,558298,400,0,260,bRMS
261,2,Chrome 97 (97.0.4692.99),TRUE,TRUE,B,FALSE,Windows 10,,1332.5,df42887_e_139.jpg,5What,0,3,34,,560347,400,0,261,bRMS
262,2,Chrome 97 (97.0.4692.99),TRUE,TRUE,B,FALSE,Windows 10,,1990.7,df42887_e_059.jpg,5What,0,3,34,,563050,400,0,262,bRMS
263,2,Chrome 97 (97.0.4692.99),TRUE,TRUE,B,FALSE,Windows 10,,1320.9,df42887_e_079.jpg,5What,0,3,34,,565093,400,0,263,bRMS
264,2,Chrome 97 (97.0.4692.99),TRUE,TRUE,B,FALSE,Windows 10,,3120.6,df42887_e_029.jpg,5What,1,3,34,,568920,400,0,264,bRMS
265,2,Chrome 97 (97.0.4692.99),TRUE,TRUE,Y,FALSE,Windows 10,,2356.9,f42887_e_234.jpg,5What,1,3,34,,572011,400,0,265,bRMS
266,2,Chrome 97 (97.0.4692.99),TRUE,TRUE,Y,FALSE,Windows 10,,842.5,f42887_e_184.jpg,5What,1,3,34,,573584,400,0,266,bRMS
267,2,Chrome 97 (97.0.4692.99),TRUE,TRUE,B,FALSE,Windows 10,,1480.2,df42887_e_279.jpg,5What,0,3,34,,575783,400,0,267,bRMS
268,2,Chrome 97 (97.0.4692.99),TRUE,TRUE,Y,FALSE,Windows 10,,956.8,f42887_e_214.jpg,5What,1,3,34,,577482,400,0,268,bRMS
269,2,Chrome 97 (97.0.4692.99),TRUE,TRUE,B,FALSE,Windows 10,,1429.8,df42887_e_149.jpg,5What,1,3,34,,579633,400,0,269,bRMS
270,2,Chrome 97 (97.0.4692.99),TRUE,TRUE,Y,FALSE,Windows 10,,1188,f42887_e_254.jpg,5What,0,3,34,,581518,400,0,270,bRMS
271,2,Chrome 97 (97.0.4692.99),TRUE,TRUE,B,FALSE,Windows 10,,2024.6,df42887_e_099.jpg,5What,0,3,34,,584292,400,0,271,bRMS
272,2,Chrome 97 (97.0.4692.99),TRUE,TRUE,Y,FALSE,Windows 10,,1049.3,f42887_e_224.jpg,5What,1,3,34,,586066,400,0,272,bRMS
273,2,Chrome 97 (97.0.4692.99),TRUE,TRUE,B,FALSE,Windows 10,,1009.2,df42887_e_179.jpg,5What,1,3,34,,587774,400,0,273,bRMS
274,2,Chrome 97 (97.0.4692.99),TRUE,TRUE,Y,FALSE,Windows 10,,1343.1,f42887_e_134.jpg,5What,0,3,34,,589844,400,0,274,bRMS
275,2,Chrome 97 (97.0.4692.99),TRUE,TRUE,B,FALSE,Windows 10,,1294.3,df42887_e_259.jpg,5What,1,3,34,,591857,400,0,275,bRMS
276,2,Chrome 97 (97.0.4692.99),TRUE,TRUE,Y,FALSE,Windows 10,,1062.2,f42887_e_124.jpg,5What,0,3,34,,593622,400,0,276,bRMS
277,2,Chrome 97 (97.0.4692.99),TRUE,TRUE,Y,FALSE,Windows 10,,1683.4,f42887_e_274.jpg,5What,0,3,34,,596042,400,0,277,bRMS
278,2,Chrome 97 (97.0.4692.99),TRUE,TRUE,Y,FALSE,Windows 10,,1164.7,f42887_e_284.jpg,5What,1,3,34,,597920,400,0,278,bRMS
279,2,Chrome 97 (97.0.4692.99),TRUE,TRUE,B,FALSE,Windows 10,,1142.1,df42887_e_199.jpg,5What,0,3,34,,599775,400,0,279,bRMS
280,2,Chrome 97 (97.0.4692.99),TRUE,TRUE,B,FALSE,Windows 10,,1752.7,df42887_e_189.jpg,5What,1,3,34,,602287,400,0,280,bRMS
281,2,Chrome 97 (97.0.4692.99),TRUE,TRUE,Y,FALSE,Windows 10,,1073.7,f42887_e_104.jpg,5What,1,3,34,,604075,400,0,281,bRMS
282,2,Chrome 97 (97.0.4692.99),TRUE,TRUE,B,FALSE,Windows 10,,1989.6,df42887_e_159.jpg,5What,1,3,34,,606794,400,0,282,bRMS
283,2,Chrome 97 (97.0.4692.99),TRUE,TRUE,B,FALSE,Windows 10,,855.8,df42887_e_249.jpg,5What,1,3,34,,608390,400,0,283,bRMS
284,2,Chrome 97 (97.0.4692.99),TRUE,TRUE,B,FALSE,Windows 10,,1368.7,f42887_e_244.jpg,5What,1,3,34,,610469,400,0,284,bRMS
285,2,Chrome 97 (97.0.4692.99),TRUE,TRUE,Y,FALSE,Windows 10,,1522.3,df42887_e_209.jpg,5What,0,3,34,,612740,400,0,285,bRMS
286,2,Chrome 97 (97.0.4692.99),TRUE,TRUE,B,FALSE,Windows 10,,2044.4,df42887_e_109.jpg,5What,0,3,34,,615520,400,0,286,bRMS
287,2,Chrome 97 (97.0.4692.99),TRUE,TRUE,B,FALSE,Windows 10,,2054.1,df42887_e_119.jpg,5What,0,3,34,,618297,400,0,287,bRMS
288,2,Chrome 97 (97.0.4692.99),TRUE,TRUE,B,FALSE,Windows 10,,1921.5,df42887_e_169.jpg,5What,0,3,34,,620930,400,0,288,bRMS
289,2,Chrome 97 (97.0.4692.99),TRUE,TRUE,Y,FALSE,Windows 10,,1666.2,f42887_e_094.jpg,5What,1,3,34,,623307,400,0,289,bRMS
290,2,Chrome 97 (97.0.4692.99),TRUE,TRUE,Y,FALSE,Windows 10,,1532.3,f42887_e_024.jpg,5What,0,3,34,,625584,400,0,290,bRMS
291,2,Chrome 97 (97.0.4692.99),TRUE,TRUE,B,FALSE,Windows 10,,4650.8,df42887_e_069.jpg,5What,1,3,34,,630938,400,0,291,bRMS
292,2,Chrome 97 (97.0.4692.99),TRUE,TRUE,B,FALSE,Windows 10,,1353.5,df42887_e_009.jpg,5What,0,3,34,,632985,400,0,292,bRMS
293,2,Chrome 97 (97.0.4692.99),TRUE,TRUE,B,FALSE,Windows 10,,1595.2,df42887_e_129.jpg,5What,1,3,34,,635313,400,0,293,bRMS
294,2,Chrome 97 (97.0.4692.99),TRUE,TRUE,Y,FALSE,Windows 10,,1208.7,f42887_e_034.jpg,5What,0,3,34,,637237,400,0,294,bRMS
295,2,Chrome 97 (97.0.4692.99),TRUE,TRUE,Y,FALSE,Windows 10,,1095.6,f42887_e_114.jpg,5What,0,3,34,,639042,400,0,295,bRMS
296,2,Chrome 97 (97.0.4692.99),TRUE,TRUE,B,FALSE,Windows 10,,1976.9,df42887_e_049.jpg,5What,1,3,34,,641741,400,0,296,bRMS
297,2,Chrome 97 (97.0.4692.99),TRUE,TRUE,B,FALSE,Windows 10,,1600.2,df42887_e_089.jpg,5What,0,3,34,,644068,400,0,297,bRMS
298,2,Chrome 97 (97.0.4692.99),TRUE,TRUE,B,FALSE,Windows 10,,1418.9,df42887_e_219.jpg,5What,1,3,34,,646221,400,0,298,bRMS
299,2,Chrome 97 (97.0.4692.99),TRUE,TRUE,Y,FALSE,Windows 10,,1072.2,f42887_e_084.jpg,5What,1,3,34,,648008,400,0,299,bRMS
300,2,Chrome 97 (97.0.4692.99),TRUE,TRUE,B,FALSE,Windows 10,,2236.4,df42887_e_299.jpg,5What,1,3,34,,650965,400,0,300,bRMS
301,2,Chrome 97 (97.0.4692.99),TRUE,TRUE,Y,FALSE,Windows 10,,2296.5,f42887_e_064.jpg,5What,1,3,34,,654020,400,0,301,bRMS
302,2,Chrome 97 (97.0.4692.99),TRUE,TRUE,B,FALSE,Windows 10,,1276,df42887_e_229.jpg,5What,0,3,34,,656009,400,0,302,bRMS
303,2,Chrome 97 (97.0.4692.99),TRUE,TRUE,B,FALSE,Windows 10,,1985.8,df42887_e_239.jpg,5What,0,3,34,,658691,400,0,303,bRMS
304,2,Chrome 97 (97.0.4692.99),TRUE,TRUE,Y,FALSE,Windows 10,,1489.7,f42887_e_174.jpg,5What,1,3,34,,660931,400,0,304,bRMS
305,2,Chrome 97 (97.0.4692.99),TRUE,TRUE,Y,FALSE,Windows 10,,1683.1,f42887_e_074.jpg,5What,0,3,34,,663331,400,0,305,bRMS
306,2,Chrome 97 (97.0.4692.99),TRUE,TRUE,Y,FALSE,Windows 10,,1668.7,f42887_e_294.jpg,5What,0,3,34,,665716,400,0,306,bRMS
307,2,Chrome 97 (97.0.4692.99),TRUE,TRUE,Y,FALSE,Windows 10,,1431.5,f42887_e_044.jpg,5What,1,3,34,,667849,400,0,307,bRMS
308,2,Chrome 97 (97.0.4692.99),TRUE,TRUE,B,FALSE,Windows 10,,1183,df42887_e_019.jpg,5What,1,3,34,,669768,400,0,308,bRMS
309,,,,,,,,"{""Q0"":""W""}",11490,,,,,,,681665,,,309,survey-text
310,,,,,,,,,5287,,,,,,,686953,,,310,instructions
311,,,,,,,,,2960,,,,,,,689913,,,311,instructions
312,,,,,,,,"{""Q0"":2,""Q1"":1,""Q2"":1,""Q3"":3,""Q4"":3,""Q5"":3,""Q6"":0,""Q7"":0,""Q8"":4,""Q9"":2,""Q10"":4}",37158,,,,,,,727078,,,312,survey-likert
313,,,,,,,,,2578,,,,,,,729657,,,313,instructions
314,,,,,,,,"{""Q0"":2,""Q1"":3,""Q2"":1,""Q3"":3,""Q4"":2,""Q5"":2,""Q6"":1,""Q7"":2,""Q8"":3,""Q9"":3,""Q10"":2,""Q11"":3,""Q12"":2,""Q13"":3,""Q14"":2}",47726,,,,,,,777392,,,314,survey-likert
315,,,,,,,,,2026,,,,,,,779419,,,315,instructions
316,,,,,,,,"{""Q0"":1,""Q1"":1,""Q2"":2,""Q3"":1,""Q4"":2,""Q5"":1,""Q6"":0,""Q7"":0,""Q8"":0,""Q9"":2,""Q10"":0,""Q11"":1,""Q12"":1,""Q13"":0,""Q14"":1,""Q15"":1,""Q16"":0,""Q17"":1,""Q18"":2,""Q19"":1}",83874,,,,,,,863305,,,316,survey-likert
317,,,,,,,,"{""Q0"":""T""}",6810,,,,,,,870119,,,317,survey-text
318,,,,,,,,"{""Q0"":""55""}",4799,,,,,,,874921,,,318,survey-text
319,,,,,,,,"{""Q0"":0,""Q1"":2}",7509,,,,,,,882433,,,319,survey-likert
320,,,,,,,,,7544,,,,,,,889977,,,320,instructions
0,,,,,,,,,,,,,,,TRUE,50973,,,0,fullscreen
1,,,,,,,,"{""Q0"":""59529dd82e03230001368985""}",3404,,,,,,,54379,,,1,survey-text
2,,,,,,,,"{""Q0"":0}",43988,,,,,,,98370,,,2,survey-likert
3,,,,,,,,,4540,,,,,,,102911,,,3,instructions
4,,,,,,,,,7928,,,,,,,110839,,,4,instructions
5,1,Chrome 96 (96.0.4664.110),TRUE,TRUE,P,FALSE,Mac OS X 10_14_6,,1373,f42887_e_130.jpg,10controlWhere,1,2,4,,112339,400,0,5,bRMS
6,1,Chrome 96 (96.0.4664.110),TRUE,TRUE,P,FALSE,Mac OS X 10_14_6,,1455.4,f42887_e_020.jpg,10controlWhere,0,2,4,,114302,400,0,6,bRMS
7,1,Chrome 96 (96.0.4664.110),TRUE,TRUE,Q,FALSE,Mac OS X 10_14_6,,1276.4,f42887_e_150.jpg,10controlWhere,1,2,4,,116088,400,0,7,bRMS
8,1,Chrome 96 (96.0.4664.110),TRUE,TRUE,Q,FALSE,Mac OS X 10_14_6,,1313.7,df42887_e_195.jpg,10controlWhere,1,2,4,,117920,400,0,8,bRMS
9,1,Chrome 96 (96.0.4664.110),TRUE,TRUE,Q,FALSE,Mac OS X 10_14_6,,1135.2,f42887_e_030.jpg,10controlWhere,1,2,4,,119557,400,0,9,bRMS
10,1,Chrome 96 (96.0.4664.110),TRUE,TRUE,Q,FALSE,Mac OS X 10_14_6,,844.6,df42887_e_295.jpg,10controlWhere,1,2,4,,120915,400,0,10,bRMS
11,1,Chrome 96 (96.0.4664.110),TRUE,TRUE,P,FALSE,Mac OS X 10_14_6,,837.3,f42887_e_080.jpg,10controlWhere,0,2,4,,122303,400,0,11,bRMS
12,1,Chrome 96 (96.0.4664.110),TRUE,TRUE,P,FALSE,Mac OS X 10_14_6,,1168.7,f42887_e_180.jpg,10controlWhere,0,2,4,,123982,400,0,12,bRMS
13,1,Chrome 96 (96.0.4664.110),TRUE,TRUE,Q,FALSE,Mac OS X 10_14_6,,1251.1,df42887_e_095.jpg,10controlWhere,1,2,4,,125741,400,0,13,bRMS
14,1,Chrome 96 (96.0.4664.110),TRUE,TRUE,P,FALSE,Mac OS X 10_14_6,,1833.1,f42887_e_170.jpg,10controlWhere,0,2,4,,128095,400,0,14,bRMS
15,1,Chrome 96 (96.0.4664.110),TRUE,TRUE,P,FALSE,Mac OS X 10_14_6,,1258.8,df42887_e_075.jpg,10controlWhere,0,2,4,,129861,400,0,15,bRMS
16,1,Chrome 96 (96.0.4664.110),TRUE,TRUE,Q,FALSE,Mac OS X 10_14_6,,977,f42887_e_050.jpg,10controlWhere,1,2,4,,131350,400,0,16,bRMS
17,1,Chrome 96 (96.0.4664.110),TRUE,TRUE,Q,FALSE,Mac OS X 10_14_6,,950.5,df42887_e_235.jpg,10controlWhere,1,2,4,,132816,400,0,17,bRMS
18,1,Chrome 96 (96.0.4664.110),TRUE,TRUE,P,FALSE,Mac OS X 10_14_6,,1245.5,df42887_e_045.jpg,10controlWhere,0,2,4,,134566,400,0,18,bRMS
19,1,Chrome 96 (96.0.4664.110),TRUE,TRUE,Q,FALSE,Mac OS X 10_14_6,,972.6,df42887_e_035.jpg,10controlWhere,1,2,4,,136062,400,0,19,bRMS
20,1,Chrome 96 (96.0.4664.110),TRUE,TRUE,P,FALSE,Mac OS X 10_14_6,,1246.8,df42887_e_135.jpg,10controlWhere,0,2,4,,137815,400,0,20,bRMS
21,1,Chrome 96 (96.0.4664.110),TRUE,TRUE,Q,FALSE,Mac OS X 10_14_6,,803.7,f42887_e_040.jpg,10controlWhere,1,2,4,,139130,400,0,21,bRMS
22,1,Chrome 96 (96.0.4664.110),TRUE,TRUE,P,FALSE,Mac OS X 10_14_6,,1143.8,df42887_e_015.jpg,10controlWhere,0,2,4,,140802,400,0,22,bRMS
23,1,Chrome 96 (96.0.4664.110),TRUE,TRUE,Q,FALSE,Mac OS X 10_14_6,,1025.7,f42887_e_110.jpg,10controlWhere,1,2,4,,142342,400,0,23,bRMS
24,1,Chrome 96 (96.0.4664.110),TRUE,TRUE,Q,FALSE,Mac OS X 10_14_6,,801.4,df42887_e_185.jpg,10controlWhere,1,2,4,,143656,400,0,24,bRMS
25,1,Chrome 96 (96.0.4664.110),TRUE,TRUE,Q,FALSE,Mac OS X 10_14_6,,786.2,f42887_e_260.jpg,10controlWhere,1,2,4,,144963,400,0,25,bRMS
26,1,Chrome 96 (96.0.4664.110),TRUE,TRUE,P,FALSE,Mac OS X 10_14_6,,1142.1,f42887_e_090.jpg,10controlWhere,0,2,4,,146613,400,0,26,bRMS
27,1,Chrome 96 (96.0.4664.110),TRUE,TRUE,Q,FALSE,Mac OS X 10_14_6,,1053.9,f42887_e_000.jpg,10controlWhere,1,2,4,,148190,400,0,27,bRMS
28,1,Chrome 96 (96.0.4664.110),TRUE,TRUE,P,FALSE,Mac OS X 10_14_6,,896.4,df42887_e_265.jpg,10controlWhere,0,2,4,,149595,400,0,28,bRMS
29,1,Chrome 96 (96.0.4664.110),TRUE,TRUE,P,FALSE,Mac OS X 10_14_6,,1135.7,f42887_e_140.jpg,10controlWhere,0,2,4,,151238,400,0,29,bRMS
30,1,Chrome 96 (96.0.4664.110),TRUE,TRUE,P,FALSE,Mac OS X 10_14_6,,1085.7,f42887_e_250.jpg,10controlWhere,0,2,4,,152842,400,0,30,bRMS
31,1,Chrome 96 (96.0.4664.110),TRUE,TRUE,Q,FALSE,Mac OS X 10_14_6,,1345.7,df42887_e_085.jpg,10controlWhere,1,2,4,,154697,400,0,31,bRMS
32,1,Chrome 96 (96.0.4664.110),TRUE,TRUE,P,FALSE,Mac OS X 10_14_6,,1017.6,df42887_e_205.jpg,10controlWhere,0,2,4,,156225,400,0,32,bRMS
33,1,Chrome 96 (96.0.4664.110),TRUE,TRUE,P,FALSE,Mac OS X 10_14_6,,1125.6,df42887_e_175.jpg,10controlWhere,0,2,4,,157869,400,0,33,bRMS
34,1,Chrome 96 (96.0.4664.110),TRUE,TRUE,P,FALSE,Mac OS X 10_14_6,,927.2,df42887_e_245.jpg,10controlWhere,0,2,4,,159304,400,0,34,bRMS
35,1,Chrome 96 (96.0.4664.110),TRUE,TRUE,P,FALSE,Mac OS X 10_14_6,,1118.5,f42887_e_230.jpg,10controlWhere,0,2,4,,160931,400,0,35,bRMS
36,1,Chrome 96 (96.0.4664.110),TRUE,TRUE,Q,FALSE,Mac OS X 10_14_6,,995,f42887_e_220.jpg,10controlWhere,1,2,4,,162438,400,0,36,bRMS
37,1,Chrome 96 (96.0.4664.110),TRUE,TRUE,P,FALSE,Mac OS X 10_14_6,,895.2,f42887_e_120.jpg,10controlWhere,0,2,4,,163853,400,0,37,bRMS
38,1,Chrome 96 (96.0.4664.110),TRUE,TRUE,P,FALSE,Mac OS X 10_14_6,,1000.6,f42887_e_060.jpg,10controlWhere,0,2,4,,165363,400,0,38,bRMS
39,1,Chrome 96 (96.0.4664.110),TRUE,TRUE,P,FALSE,Mac OS X 10_14_6,,1011,f42887_e_270.jpg,10controlWhere,0,2,4,,166886,400,0,39,bRMS
40,1,Chrome 96 (96.0.4664.110),TRUE,TRUE,Q,FALSE,Mac OS X 10_14_6,,1293.8,df42887_e_215.jpg,10controlWhere,1,2,4,,168699,400,0,40,bRMS
41,1,Chrome 96 (96.0.4664.110),TRUE,TRUE,Q,FALSE,Mac OS X 10_14_6,,1387.4,f42887_e_010.jpg,10controlWhere,1,2,4,,170599,400,0,41,bRMS
42,1,Chrome 96 (96.0.4664.110),TRUE,TRUE,P,FALSE,Mac OS X 10_14_6,,891.7,df42887_e_225.jpg,10controlWhere,0,2,4,,171999,400,0,42,bRMS
43,1,Chrome 96 (96.0.4664.110),TRUE,TRUE,Q,FALSE,Mac OS X 10_14_6,,800.2,f42887_e_210.jpg,10controlWhere,1,2,4,,173315,400,0,43,bRMS
44,1,Chrome 96 (96.0.4664.110),TRUE,TRUE,Q,FALSE,Mac OS X 10_14_6,,982.5,f42887_e_280.jpg,10controlWhere,1,2,4,,174810,400,0,44,bRMS
45,1,Chrome 96 (96.0.4664.110),TRUE,TRUE,Q,FALSE,Mac OS X 10_14_6,,852.9,df42887_e_145.jpg,10controlWhere,1,2,4,,176175,400,0,45,bRMS
46,1,Chrome 96 (96.0.4664.110),TRUE,TRUE,P,FALSE,Mac OS X 10_14_6,,1098.7,df42887_e_165.jpg,10controlWhere,0,2,4,,177790,400,0,46,bRMS
47,1,Chrome 96 (96.0.4664.110),TRUE,TRUE,Q,FALSE,Mac OS X 10_14_6,,941.5,df42887_e_055.jpg,10controlWhere,1,2,4,,179238,400,0,47,bRMS
48,1,Chrome 96 (96.0.4664.110),TRUE,TRUE,Q,FALSE,Mac OS X 10_14_6,,1199.3,df42887_e_275.jpg,10controlWhere,1,2,4,,180943,400,0,48,bRMS
49,1,Chrome 96 (96.0.4664.110),TRUE,TRUE,P,FALSE,Mac OS X 10_14_6,,985.8,df42887_e_065.jpg,10controlWhere,0,2,4,,182471,400,0,49,bRMS
50,1,Chrome 96 (96.0.4664.110),TRUE,TRUE,Q,FALSE,Mac OS X 10_14_6,,1056.3,df42887_e_005.jpg,10controlWhere,1,2,4,,184043,400,0,50,bRMS
51,1,Chrome 96 (96.0.4664.110),TRUE,TRUE,P,FALSE,Mac OS X 10_14_6,,928.9,df42887_e_155.jpg,10controlWhere,0,2,4,,185486,400,0,51,bRMS
52,1,Chrome 96 (96.0.4664.110),TRUE,TRUE,Q,FALSE,Mac OS X 10_14_6,,1130.8,f42887_e_200.jpg,10controlWhere,1,2,4,,187143,400,0,52,bRMS
53,1,Chrome 96 (96.0.4664.110),TRUE,TRUE,P,FALSE,Mac OS X 10_14_6,,998.2,df42887_e_115.jpg,10controlWhere,0,2,4,,188650,400,0,53,bRMS
54,1,Chrome 96 (96.0.4664.110),TRUE,TRUE,Q,FALSE,Mac OS X 10_14_6,,1208.2,f42887_e_290.jpg,10controlWhere,1,2,4,,190367,400,0,54,bRMS
55,1,Chrome 96 (96.0.4664.110),TRUE,TRUE,P,FALSE,Mac OS X 10_14_6,,993.6,f42887_e_160.jpg,10controlWhere,0,2,4,,191877,400,0,55,bRMS
56,1,Chrome 96 (96.0.4664.110),TRUE,TRUE,P,FALSE,Mac OS X 10_14_6,,1206.8,f42887_e_070.jpg,10controlWhere,0,2,4,,193584,400,0,56,bRMS
57,1,Chrome 96 (96.0.4664.110),TRUE,TRUE,P,FALSE,Mac OS X 10_14_6,,932.4,df42887_e_255.jpg,10controlWhere,0,2,4,,195025,400,0,57,bRMS
58,1,Chrome 96 (96.0.4664.110),TRUE,TRUE,P,FALSE,Mac OS X 10_14_6,,1045.8,df42887_e_025.jpg,10controlWhere,0,2,4,,196589,400,0,58,bRMS
59,1,Chrome 96 (96.0.4664.110),TRUE,TRUE,Q,FALSE,Mac OS X 10_14_6,,1201.6,f42887_e_100.jpg,10controlWhere,1,2,4,,198306,400,0,59,bRMS
60,1,Chrome 96 (96.0.4664.110),TRUE,TRUE,P,FALSE,Mac OS X 10_14_6,,978.2,df42887_e_285.jpg,10controlWhere,0,2,4,,199792,400,0,60,bRMS
61,1,Chrome 96 (96.0.4664.110),TRUE,TRUE,Q,FALSE,Mac OS X 10_14_6,,1066.7,df42887_e_125.jpg,10controlWhere,1,2,4,,201384,400,0,61,bRMS
62,1,Chrome 96 (96.0.4664.110),TRUE,TRUE,Q,FALSE,Mac OS X 10_14_6,,1178.6,df42887_e_105.jpg,10controlWhere,1,2,4,,203068,400,0,62,bRMS
63,1,Chrome 96 (96.0.4664.110),TRUE,TRUE,P,FALSE,Mac OS X 10_14_6,,1312.3,f42887_e_240.jpg,10controlWhere,0,2,4,,204889,400,0,63,bRMS
64,1,Chrome 96 (96.0.4664.110),TRUE,TRUE,P,FALSE,Mac OS X 10_14_6,,1248.8,f42887_e_190.jpg,10controlWhere,0,2,4,,206656,400,0,64,bRMS
65,,,,,,,,,59923,,,,,,,266986,,,65,instructions
66,1,Chrome 96 (96.0.4664.110),TRUE,TRUE,P,FALSE,Mac OS X 10_14_6,,1590.6,df42887_e_131.jpg,10Where,0,3,4,,268687,400,0,66,bRMS
67,1,Chrome 96 (96.0.4664.110),TRUE,TRUE,Q,FALSE,Mac OS X 10_14_6,,1661.7,df42887_e_051.jpg,10Where,1,3,4,,270865,400,0,67,bRMS
68,1,Chrome 96 (96.0.4664.110),TRUE,TRUE,Q,FALSE,Mac OS X 10_14_6,,1291.3,df42887_e_081.jpg,10Where,1,3,4,,272684,400,0,68,bRMS
69,1,Chrome 96 (96.0.4664.110),TRUE,TRUE,P,FALSE,Mac OS X 10_14_6,,930.9,f42887_e_216.jpg,10Where,0,3,4,,274125,400,0,69,bRMS
70,1,Chrome 96 (96.0.4664.110),TRUE,TRUE,Q,FALSE,Mac OS X 10_14_6,,1107.6,f42887_e_256.jpg,10Where,1,3,4,,275741,400,0,70,bRMS
71,1,Chrome 96 (96.0.4664.110),TRUE,TRUE,P,FALSE,Mac OS X 10_14_6,,927.3,f42887_e_116.jpg,10Where,0,3,4,,277180,400,0,71,bRMS
72,1,Chrome 96 (96.0.4664.110),TRUE,TRUE,P,FALSE,Mac OS X 10_14_6,,918.4,df42887_e_241.jpg,10Where,0,3,4,,278603,400,0,72,bRMS
73,1,Chrome 96 (96.0.4664.110),TRUE,TRUE,Q,FALSE,Mac OS X 10_14_6,,1232.7,df42887_e_251.jpg,10Where,1,3,4,,280347,400,0,73,bRMS
74,1,Chrome 96 (96.0.4664.110),TRUE,TRUE,Q,FALSE,Mac OS X 10_14_6,,857.7,f42887_e_016.jpg,10Where,1,3,4,,281730,400,0,74,bRMS
75,1,Chrome 96 (96.0.4664.110),TRUE,TRUE,Q,FALSE,Mac OS X 10_14_6,,835.7,df42887_e_231.jpg,10Where,1,3,4,,283076,400,0,75,bRMS
76,1,Chrome 96 (96.0.4664.110),TRUE,TRUE,P,FALSE,Mac OS X 10_14_6,,1101.4,f42887_e_136.jpg,10Where,0,3,4,,284689,400,0,76,bRMS
77,1,Chrome 96 (96.0.4664.110),TRUE,TRUE,P,FALSE,Mac OS X 10_14_6,,1108.1,f42887_e_156.jpg,10Where,0,3,4,,286315,400,0,77,bRMS
78,1,Chrome 96 (96.0.4664.110),TRUE,TRUE,P,FALSE,Mac OS X 10_14_6,,862.3,f42887_e_266.jpg,10Where,0,3,4,,287685,400,0,78,bRMS
79,1,Chrome 96 (96.0.4664.110),TRUE,TRUE,Q,FALSE,Mac OS X 10_14_6,,711.5,df42887_e_291.jpg,10Where,1,3,4,,288908,400,0,79,bRMS
80,1,Chrome 96 (96.0.4664.110),TRUE,TRUE,Q,FALSE,Mac OS X 10_14_6,,830.6,df42887_e_141.jpg,10Where,1,3,4,,290268,400,0,80,bRMS
81,1,Chrome 96 (96.0.4664.110),TRUE,TRUE,P,FALSE,Mac OS X 10_14_6,,1075.4,f42887_e_286.jpg,10Where,0,3,4,,291854,400,0,81,bRMS
82,1,Chrome 96 (96.0.4664.110),TRUE,TRUE,P,FALSE,Mac OS X 10_14_6,,972.8,f42887_e_096.jpg,10Where,0,3,4,,293339,400,0,82,bRMS
83,1,Chrome 96 (96.0.4664.110),TRUE,TRUE,Q,FALSE,Mac OS X 10_14_6,,862.6,f42887_e_126.jpg,10Where,1,3,4,,294731,400,0,83,bRMS
84,1,Chrome 96 (96.0.4664.110),TRUE,TRUE,P,FALSE,Mac OS X 10_14_6,,739.9,df42887_e_181.jpg,10Where,0,3,4,,295982,400,0,84,bRMS
85,1,Chrome 96 (96.0.4664.110),TRUE,TRUE,Q,FALSE,Mac OS X 10_14_6,,798.2,df42887_e_221.jpg,10Where,1,3,4,,297302,400,0,85,bRMS
86,1,Chrome 96 (96.0.4664.110),TRUE,TRUE,Q,FALSE,Mac OS X 10_14_6,,791,df42887_e_171.jpg,10Where,1,3,4,,298602,400,0,86,bRMS
87,1,Chrome 96 (96.0.4664.110),TRUE,TRUE,Q,FALSE,Mac OS X 10_14_6,,805.8,df42887_e_191.jpg,10Where,1,3,4,,299917,400,0,87,bRMS
88,1,Chrome 96 (96.0.4664.110),TRUE,TRUE,P,FALSE,Mac OS X 10_14_6,,1215.5,f42887_e_176.jpg,10Where,0,3,4,,301645,400,0,88,bRMS
89,1,Chrome 96 (96.0.4664.110),TRUE,TRUE,P,FALSE,Mac OS X 10_14_6,,885.8,f42887_e_296.jpg,10Where,0,3,4,,303042,400,0,89,bRMS
90,1,Chrome 96 (96.0.4664.110),TRUE,TRUE,P,FALSE,Mac OS X 10_14_6,,934.5,df42887_e_281.jpg,10Where,0,3,4,,304500,400,0,90,bRMS
91,1,Chrome 96 (96.0.4664.110),TRUE,TRUE,P,FALSE,Mac OS X 10_14_6,,894.8,f42887_e_036.jpg,10Where,0,3,4,,305910,400,0,91,bRMS
92,1,Chrome 96 (96.0.4664.110),TRUE,TRUE,P,FALSE,Mac OS X 10_14_6,,867.5,f42887_e_006.jpg,10Where,0,3,4,,307286,400,0,92,bRMS
93,1,Chrome 96 (96.0.4664.110),TRUE,TRUE,Q,FALSE,Mac OS X 10_14_6,,804.8,f42887_e_046.jpg,10Where,1,3,4,,308600,400,0,93,bRMS
94,1,Chrome 96 (96.0.4664.110),TRUE,TRUE,Q,FALSE,Mac OS X 10_14_6,,861.6,df42887_e_261.jpg,10Where,1,3,4,,309976,400,0,94,bRMS
95,1,Chrome 96 (96.0.4664.110),TRUE,TRUE,Q,FALSE,Mac OS X 10_14_6,,1010,df42887_e_031.jpg,10Where,1,3,4,,311499,400,0,95,bRMS
96,1,Chrome 96 (96.0.4664.110),TRUE,TRUE,Q,FALSE,Mac OS X 10_14_6,,921.6,f42887_e_076.jpg,10Where,1,3,4,,312934,400,0,96,bRMS
97,1,Chrome 96 (96.0.4664.110),TRUE,TRUE,P,FALSE,Mac OS X 10_14_6,,960.5,f42887_e_196.jpg,10Where,0,3,4,,314406,400,0,97,bRMS
98,1,Chrome 96 (96.0.4664.110),TRUE,TRUE,Q,FALSE,Mac OS X 10_14_6,,745.6,f42887_e_236.jpg,10Where,1,3,4,,315661,400,0,98,bRMS
99,1,Chrome 96 (96.0.4664.110),TRUE,TRUE,P,FALSE,Mac OS X 10_14_6,,812.6,f42887_e_246.jpg,10Where,0,3,4,,316995,400,0,99,bRMS
100,1,Chrome 96 (96.0.4664.110),TRUE,TRUE,P,FALSE,Mac OS X 10_14_6,,1137.8,df42887_e_091.jpg,10Where,0,3,4,,318642,400,0,100,bRMS
101,1,Chrome 96 (96.0.4664.110),TRUE,TRUE,Q,FALSE,Mac OS X 10_14_6,,822.4,f42887_e_226.jpg,10Where,1,3,4,,319987,400,0,101,bRMS
102,1,Chrome 96 (96.0.4664.110),TRUE,TRUE,Q,FALSE,Mac OS X 10_14_6,,846.1,df42887_e_101.jpg,10Where,1,3,4,,321342,400,0,102,bRMS
103,1,Chrome 96 (96.0.4664.110),TRUE,TRUE,P,FALSE,Mac OS X 10_14_6,,1163.9,df42887_e_121.jpg,10Where,0,3,4,,323014,400,0,103,bRMS
104,1,Chrome 96 (96.0.4664.110),TRUE,TRUE,Q,FALSE,Mac OS X 10_14_6,,751.1,f42887_e_206.jpg,10Where,1,3,4,,324293,400,0,104,bRMS
105,1,Chrome 96 (96.0.4664.110),TRUE,TRUE,Q,FALSE,Mac OS X 10_14_6,,883.3,df42887_e_071.jpg,10Where,1,3,4,,325687,400,0,105,bRMS
106,1,Chrome 96 (96.0.4664.110),TRUE,TRUE,Q,FALSE,Mac OS X 10_14_6,,934.8,df42887_e_011.jpg,10Where,1,3,4,,327135,400,0,106,bRMS
107,1,Chrome 96 (96.0.4664.110),TRUE,TRUE,P,FALSE,Mac OS X 10_14_6,,609.3,df42887_e_061.jpg,10Where,0,3,4,,328269,400,0,107,bRMS
108,1,Chrome 96 (96.0.4664.110),TRUE,TRUE,P,FALSE,Mac OS X 10_14_6,,773,f42887_e_106.jpg,10Where,0,3,4,,329556,400,0,108,bRMS
109,1,Chrome 96 (96.0.4664.110),TRUE,TRUE,Q,FALSE,Mac OS X 10_14_6,,772.6,df42887_e_211.jpg,10Where,1,3,4,,330838,400,0,109,bRMS
110,1,Chrome 96 (96.0.4664.110),TRUE,TRUE,P,FALSE,Mac OS X 10_14_6,,791.1,df42887_e_111.jpg,10Where,0,3,4,,332148,400,0,110,bRMS
111,1,Chrome 96 (96.0.4664.110),TRUE,TRUE,P,FALSE,Mac OS X 10_14_6,,870.6,df42887_e_041.jpg,10Where,0,3,4,,333530,400,0,111,bRMS
112,1,Chrome 96 (96.0.4664.110),TRUE,TRUE,P,FALSE,Mac OS X 10_14_6,,768.2,df42887_e_271.jpg,10Where,0,3,4,,334804,400,0,112,bRMS
113,1,Chrome 96 (96.0.4664.110),TRUE,TRUE,Q,FALSE,Mac OS X 10_14_6,,1128.6,f42887_e_146.jpg,10Where,1,3,4,,336442,400,0,113,bRMS
114,1,Chrome 96 (96.0.4664.110),TRUE,TRUE,P,FALSE,Mac OS X 10_14_6,,931.1,f42887_e_086.jpg,10Where,0,3,4,,337892,400,0,114,bRMS
115,1,Chrome 96 (96.0.4664.110),TRUE,TRUE,Q,FALSE,Mac OS X 10_14_6,,763.9,f42887_e_066.jpg,10Where,1,3,4,,339162,400,0,115,bRMS
116,1,Chrome 96 (96.0.4664.110),TRUE,TRUE,P,FALSE,Mac OS X 10_14_6,,680.3,df42887_e_151.jpg,10Where,1,3,4,,340349,400,0,116,bRMS
117,1,Chrome 96 (96.0.4664.110),TRUE,TRUE,Q,FALSE,Mac OS X 10_14_6,,752.6,f42887_e_166.jpg,10Where,1,3,4,,341625,400,0,117,bRMS
118,1,Chrome 96 (96.0.4664.110),TRUE,TRUE,P,FALSE,Mac OS X 10_14_6,,922.4,f42887_e_276.jpg,10Where,0,3,4,,343058,400,0,118,bRMS
119,1,Chrome 96 (96.0.4664.110),TRUE,TRUE,P,FALSE,Mac OS X 10_14_6,,805,f42887_e_056.jpg,10Where,0,3,4,,344378,400,0,119,bRMS
120,1,Chrome 96 (96.0.4664.110),TRUE,TRUE,Q,FALSE,Mac OS X 10_14_6,,1085.7,df42887_e_021.jpg,10Where,1,3,4,,345991,400,0,120,bRMS
121,1,Chrome 96 (96.0.4664.110),TRUE,TRUE,Q,FALSE,Mac OS X 10_14_6,,838.5,f42887_e_186.jpg,10Where,1,3,4,,347339,400,0,121,bRMS
122,1,Chrome 96 (96.0.4664.110),TRUE,TRUE,P,FALSE,Mac OS X 10_14_6,,807.8,df42887_e_001.jpg,10Where,0,3,4,,348655,400,0,122,bRMS
123,1,Chrome 96 (96.0.4664.110),TRUE,TRUE,P,FALSE,Mac OS X 10_14_6,,1198.8,df42887_e_201.jpg,10Where,0,3,4,,350375,400,0,123,bRMS
124,1,Chrome 96 (96.0.4664.110),TRUE,TRUE,Q,FALSE,Mac OS X 10_14_6,,913.3,f42887_e_026.jpg,10Where,1,3,4,,351799,400,0,124,bRMS
125,1,Chrome 96 (96.0.4664.110),TRUE,TRUE,P,FALSE,Mac OS X 10_14_6,,738.6,df42887_e_161.jpg,10Where,0,3,4,,353046,400,0,125,bRMS
126,,,,,,,,,26582,,,,,,,380031,,,126,instructions
127,1,Chrome 96 (96.0.4664.110),TRUE,TRUE,Q,FALSE,Mac OS X 10_14_6,,1067.4,f42887_e_072.jpg,5Where,1,4,4,,381224,400,0,127,bRMS
128,1,Chrome 96 (96.0.4664.110),TRUE,TRUE,P,FALSE,Mac OS X 10_14_6,,1271.1,df42887_e_147.jpg,5Where,0,4,4,,383008,400,0,128,bRMS
129,1,Chrome 96 (96.0.4664.110),TRUE,TRUE,Q,FALSE,Mac OS X 10_14_6,,1282.8,df42887_e_207.jpg,5Where,1,4,4,,384797,400,0,129,bRMS
130,1,Chrome 96 (96.0.4664.110),TRUE,TRUE,P,FALSE,Mac OS X 10_14_6,,1162,df42887_e_117.jpg,5Where,0,4,4,,386481,400,0,130,bRMS
131,1,Chrome 96 (96.0.4664.110),TRUE,TRUE,P,FALSE,Mac OS X 10_14_6,,1060.8,f42887_e_232.jpg,5Where,0,4,4,,388058,400,0,131,bRMS
132,1,Chrome 96 (96.0.4664.110),TRUE,TRUE,Q,FALSE,Mac OS X 10_14_6,,1284.8,df42887_e_047.jpg,5Where,1,4,4,,389853,400,0,132,bRMS
133,1,Chrome 96 (96.0.4664.110),TRUE,TRUE,Q,FALSE,Mac OS X 10_14_6,,1122.8,f42887_e_102.jpg,5Where,1,4,4,,391490,400,0,133,bRMS
134,1,Chrome 96 (96.0.4664.110),TRUE,TRUE,Q,FALSE,Mac OS X 10_14_6,,1056.2,f42887_e_192.jpg,5Where,1,4,4,,393059,400,0,134,bRMS
135,1,Chrome 96 (96.0.4664.110),TRUE,TRUE,P,FALSE,Mac OS X 10_14_6,,1097.7,f42887_e_002.jpg,5Where,0,4,4,,394668,400,0,135,bRMS
136,1,Chrome 96 (96.0.4664.110),TRUE,TRUE,Q,FALSE,Mac OS X 10_14_6,,1259.9,df42887_e_107.jpg,5Where,1,4,4,,396453,400,0,136,bRMS
137,1,Chrome 96 (96.0.4664.110),TRUE,TRUE,Q,FALSE,Mac OS X 10_14_6,,1459.2,df42887_e_137.jpg,5Where,1,4,4,,398424,400,0,137,bRMS
138,1,Chrome 96 (96.0.4664.110),TRUE,TRUE,Q,FALSE,Mac OS X 10_14_6,,1365.5,df42887_e_157.jpg,5Where,1,4,4,,400360,400,0,138,bRMS
139,1,Chrome 96 (96.0.4664.110),TRUE,TRUE,Q,FALSE,Mac OS X 10_14_6,,1020.9,df42887_e_287.jpg,5Where,1,4,4,,401905,400,0,139,bRMS
140,1,Chrome 96 (96.0.4664.110),TRUE,TRUE,Q,FALSE,Mac OS X 10_14_6,,1100.8,f42887_e_162.jpg,5Where,1,4,4,,403515,400,0,140,bRMS
141,1,Chrome 96 (96.0.4664.110),TRUE,TRUE,P,FALSE,Mac OS X 10_14_6,,1186.7,f42887_e_052.jpg,5Where,0,4,4,,405235,400,0,141,bRMS
142,1,Chrome 96 (96.0.4664.110),TRUE,TRUE,P,FALSE,Mac OS X 10_14_6,,1110.2,f42887_e_202.jpg,5Where,0,4,4,,406858,400,0,142,bRMS
143,1,Chrome 96 (96.0.4664.110),TRUE,TRUE,P,FALSE,Mac OS X 10_14_6,,992.9,df42887_e_227.jpg,5Where,0,4,4,,408364,400,0,143,bRMS
144,1,Chrome 96 (96.0.4664.110),TRUE,TRUE,Q,FALSE,Mac OS X 10_14_6,,1248.6,df42887_e_197.jpg,5Where,1,4,4,,410141,400,0,144,bRMS
145,1,Chrome 96 (96.0.4664.110),TRUE,TRUE,Q,FALSE,Mac OS X 10_14_6,,1361.9,df42887_e_027.jpg,5Where,1,4,4,,412011,400,0,145,bRMS
146,1,Chrome 96 (96.0.4664.110),TRUE,TRUE,Q,FALSE,Mac OS X 10_14_6,,1006.6,f42887_e_222.jpg,5Where,1,4,4,,413530,400,0,146,bRMS
147,1,Chrome 96 (96.0.4664.110),TRUE,TRUE,P,FALSE,Mac OS X 10_14_6,,1338.4,f42887_e_282.jpg,5Where,0,4,4,,415396,400,0,147,bRMS
148,1,Chrome 96 (96.0.4664.110),TRUE,TRUE,Q,FALSE,Mac OS X 10_14_6,,870.1,f42887_e_022.jpg,5Where,1,4,4,,416771,400,0,148,bRMS
149,1,Chrome 96 (96.0.4664.110),TRUE,TRUE,P,FALSE,Mac OS X 10_14_6,,894,f42887_e_212.jpg,5Where,0,4,4,,418179,400,0,149,bRMS
150,1,Chrome 96 (96.0.4664.110),TRUE,TRUE,Q,FALSE,Mac OS X 10_14_6,,924.7,df42887_e_257.jpg,5Where,1,4,4,,419630,400,0,150,bRMS
151,1,Chrome 96 (96.0.4664.110),TRUE,TRUE,P,FALSE,Mac OS X 10_14_6,,1161.3,df42887_e_167.jpg,5Where,0,4,4,,421304,400,0,151,bRMS
152,1,Chrome 96 (96.0.4664.110),TRUE,TRUE,Q,FALSE,Mac OS X 10_14_6,,1273.6,df42887_e_007.jpg,5Where,1,4,4,,423089,400,0,152,bRMS
153,1,Chrome 96 (96.0.4664.110),TRUE,TRUE,Q,FALSE,Mac OS X 10_14_6,,805.7,df42887_e_057.jpg,5Where,1,4,4,,424417,400,0,153,bRMS
154,1,Chrome 96 (96.0.4664.110),TRUE,TRUE,P,FALSE,Mac OS X 10_14_6,,932.1,f42887_e_032.jpg,5Where,0,4,4,,425864,400,0,154,bRMS
155,1,Chrome 96 (96.0.4664.110),TRUE,TRUE,Q,FALSE,Mac OS X 10_14_6,,1275.5,df42887_e_037.jpg,5Where,1,4,4,,427651,400,0,155,bRMS
156,1,Chrome 96 (96.0.4664.110),TRUE,TRUE,Q,FALSE,Mac OS X 10_14_6,,1206.3,f42887_e_272.jpg,5Where,1,4,4,,429376,400,0,156,bRMS
157,1,Chrome 96 (96.0.4664.110),TRUE,TRUE,P,FALSE,Mac OS X 10_14_6,,961.4,df42887_e_067.jpg,5Where,0,4,4,,430853,400,0,157,bRMS
158,1,Chrome 96 (96.0.4664.110),TRUE,TRUE,P,FALSE,Mac OS X 10_14_6,,1272.7,f42887_e_242.jpg,5Where,0,4,4,,432641,400,0,158,bRMS
159,1,Chrome 96 (96.0.4664.110),TRUE,TRUE,P,FALSE,Mac OS X 10_14_6,,1083.5,f42887_e_082.jpg,5Where,0,4,4,,434251,400,0,159,bRMS
160,1,Chrome 96 (96.0.4664.110),TRUE,TRUE,Q,FALSE,Mac OS X 10_14_6,,960,f42887_e_122.jpg,5Where,1,4,4,,435725,400,0,160,bRMS
161,1,Chrome 96 (96.0.4664.110),TRUE,TRUE,P,FALSE,Mac OS X 10_14_6,,899.9,df42887_e_297.jpg,5Where,0,4,4,,437134,400,0,161,bRMS
162,1,Chrome 96 (96.0.4664.110),TRUE,TRUE,P,FALSE,Mac OS X 10_14_6,,1127.2,f42887_e_252.jpg,5Where,0,4,4,,438769,400,0,162,bRMS
163,1,Chrome 96 (96.0.4664.110),TRUE,TRUE,Q,FALSE,Mac OS X 10_14_6,,839,df42887_e_097.jpg,5Where,1,4,4,,440134,400,0,163,bRMS
164,1,Chrome 96 (96.0.4664.110),TRUE,TRUE,Q,FALSE,Mac OS X 10_14_6,,920,f42887_e_132.jpg,5Where,1,4,4,,441570,400,0,164,bRMS
165,1,Chrome 96 (96.0.4664.110),TRUE,TRUE,P,FALSE,Mac OS X 10_14_6,,929.8,f42887_e_152.jpg,5Where,0,4,4,,443007,400,0,165,bRMS
166,1,Chrome 96 (96.0.4664.110),TRUE,TRUE,Q,FALSE,Mac OS X 10_14_6,,806.5,df42887_e_267.jpg,5Where,1,4,4,,444336,400,0,166,bRMS
167,1,Chrome 96 (96.0.4664.110),TRUE,TRUE,P,FALSE,Mac OS X 10_14_6,,1270.6,f42887_e_042.jpg,5Where,0,4,4,,446117,400,0,167,bRMS
168,1,Chrome 96 (96.0.4664.110),TRUE,TRUE,P,FALSE,Mac OS X 10_14_6,,1273.8,df42887_e_217.jpg,5Where,0,4,4,,447903,400,0,168,bRMS
169,1,Chrome 96 (96.0.4664.110),TRUE,TRUE,Q,FALSE,Mac OS X 10_14_6,,1036.4,f42887_e_182.jpg,5Where,1,4,4,,449453,400,0,169,bRMS
170,1,Chrome 96 (96.0.4664.110),TRUE,TRUE,Q,FALSE,Mac OS X 10_14_6,,1216.7,df42887_e_237.jpg,5Where,1,4,4,,451189,400,0,170,bRMS
171,1,Chrome 96 (96.0.4664.110),TRUE,TRUE,Q,FALSE,Mac OS X 10_14_6,,1142,df42887_e_077.jpg,5Where,1,4,4,,452843,400,0,171,bRMS
172,1,Chrome 96 (96.0.4664.110),TRUE,TRUE,P,FALSE,Mac OS X 10_14_6,,1075.1,f42887_e_142.jpg,5Where,0,4,4,,454428,400,0,172,bRMS
173,1,Chrome 96 (96.0.4664.110),TRUE,TRUE,Q,FALSE,Mac OS X 10_14_6,,897.2,df42887_e_087.jpg,5Where,1,4,4,,455832,400,0,173,bRMS
174,1,Chrome 96 (96.0.4664.110),TRUE,TRUE,P,FALSE,Mac OS X 10_14_6,,1025.5,f42887_e_292.jpg,5Where,0,4,4,,457371,400,0,174,bRMS
175,1,Chrome 96 (96.0.4664.110),TRUE,TRUE,Q,FALSE,Mac OS X 10_14_6,,835.7,f42887_e_112.jpg,5Where,1,4,4,,458738,400,0,175,bRMS
176,1,Chrome 96 (96.0.4664.110),TRUE,TRUE,P,FALSE,Mac OS X 10_14_6,,1131.2,f42887_e_062.jpg,5Where,0,4,4,,460383,400,0,176,bRMS
177,1,Chrome 96 (96.0.4664.110),TRUE,TRUE,Q,FALSE,Mac OS X 10_14_6,,821.6,f42887_e_262.jpg,5Where,1,4,4,,461711,400,0,177,bRMS
178,1,Chrome 96 (96.0.4664.110),TRUE,TRUE,P,FALSE,Mac OS X 10_14_6,,1040.7,f42887_e_172.jpg,5Where,0,4,4,,463258,400,0,178,bRMS
179,1,Chrome 96 (96.0.4664.110),TRUE,TRUE,Q,FALSE,Mac OS X 10_14_6,,911.3,df42887_e_247.jpg,5Where,1,4,4,,464681,400,0,179,bRMS
180,1,Chrome 96 (96.0.4664.110),TRUE,TRUE,Q,FALSE,Mac OS X 10_14_6,,922.6,df42887_e_017.jpg,5Where,1,4,4,,466113,400,0,180,bRMS
181,1,Chrome 96 (96.0.4664.110),TRUE,TRUE,Q,FALSE,Mac OS X 10_14_6,,925.6,df42887_e_177.jpg,5Where,1,4,4,,467550,400,0,181,bRMS
182,1,Chrome 96 (96.0.4664.110),TRUE,TRUE,P,FALSE,Mac OS X 10_14_6,,1067.5,f42887_e_092.jpg,5Where,0,4,4,,469145,400,0,182,bRMS
183,1,Chrome 96 (96.0.4664.110),TRUE,TRUE,P,FALSE,Mac OS X 10_14_6,,941,df42887_e_187.jpg,5Where,0,4,4,,470596,400,0,183,bRMS
184,1,Chrome 96 (96.0.4664.110),TRUE,TRUE,Q,FALSE,Mac OS X 10_14_6,,815,df42887_e_127.jpg,5Where,1,4,4,,471922,400,0,184,bRMS
185,1,Chrome 96 (96.0.4664.110),TRUE,TRUE,Q,FALSE,Mac OS X 10_14_6,,877,f42887_e_012.jpg,5Where,1,4,4,,473313,400,0,185,bRMS
186,1,Chrome 96 (96.0.4664.110),TRUE,TRUE,Q,FALSE,Mac OS X 10_14_6,,940.5,df42887_e_277.jpg,5Where,1,4,4,,474769,400,0,186,bRMS
187,,,,,,,,"{""Q0"":""T""}",6370,,,,,,,481545,,,187,survey-text
188,,,,,,,,,15239,,,,,,,496785,,,188,instructions
189,2,Chrome 96 (96.0.4664.110),TRUE,TRUE,Y,FALSE,Mac OS X 10_14_6,,1070.9,f42887_e_168.jpg,10What,0,2,4,,497960,400,0,189,bRMS
190,2,Chrome 96 (96.0.4664.110),TRUE,TRUE,B,FALSE,Mac OS X 10_14_6,,906.7,df42887_e_183.jpg,10What,1,2,4,,499379,400,0,190,bRMS
191,2,Chrome 96 (96.0.4664.110),TRUE,TRUE,Y,FALSE,Mac OS X 10_14_6,,1053.3,f42887_e_118.jpg,10What,0,2,4,,500960,400,0,191,bRMS
192,2,Chrome 96 (96.0.4664.110),TRUE,TRUE,B,FALSE,Mac OS X 10_14_6,,700.5,df42887_e_113.jpg,10What,1,2,4,,502189,400,0,192,bRMS
193,2,Chrome 96 (96.0.4664.110),TRUE,TRUE,Y,FALSE,Mac OS X 10_14_6,,927,f42887_e_208.jpg,10What,1,2,4,,503627,400,0,193,bRMS
194,2,Chrome 96 (96.0.4664.110),TRUE,TRUE,Y,FALSE,Mac OS X 10_14_6,,1137.2,f42887_e_158.jpg,10What,0,2,4,,505289,400,0,194,bRMS
195,2,Chrome 96 (96.0.4664.110),TRUE,TRUE,Y,FALSE,Mac OS X 10_14_6,,1056.7,f42887_e_228.jpg,10What,1,2,4,,506850,400,0,195,bRMS
196,2,Chrome 96 (96.0.4664.110),TRUE,TRUE,Y,FALSE,Mac OS X 10_14_6,,953.1,df42887_e_213.jpg,10What,0,2,4,,508312,400,0,196,bRMS
197,2,Chrome 96 (96.0.4664.110),TRUE,TRUE,B,FALSE,Mac OS X 10_14_6,,1298.6,df42887_e_293.jpg,10What,1,2,4,,510134,400,0,197,bRMS
198,2,Chrome 96 (96.0.4664.110),TRUE,TRUE,Y,FALSE,Mac OS X 10_14_6,,1046.9,f42887_e_298.jpg,10What,1,2,4,,511708,400,0,198,bRMS
199,2,Chrome 96 (96.0.4664.110),TRUE,TRUE,B,FALSE,Mac OS X 10_14_6,,1357.4,df42887_e_063.jpg,10What,0,2,4,,513584,400,0,199,bRMS
200,2,Chrome 96 (96.0.4664.110),TRUE,TRUE,B,FALSE,Mac OS X 10_14_6,,979,df42887_e_013.jpg,10What,1,2,4,,515091,400,0,200,bRMS
201,2,Chrome 96 (96.0.4664.110),TRUE,TRUE,Y,FALSE,Mac OS X 10_14_6,,1026.9,f42887_e_198.jpg,10What,0,2,4,,516633,400,0,201,bRMS
202,2,Chrome 96 (96.0.4664.110),TRUE,TRUE,B,FALSE,Mac OS X 10_14_6,,849.4,df42887_e_053.jpg,10What,1,2,4,,518001,400,0,202,bRMS
203,2,Chrome 96 (96.0.4664.110),TRUE,TRUE,Y,FALSE,Mac OS X 10_14_6,,1018.1,f42887_e_218.jpg,10What,1,2,4,,519530,400,0,203,bRMS
204,2,Chrome 96 (96.0.4664.110),TRUE,TRUE,B,FALSE,Mac OS X 10_14_6,,863.8,df42887_e_023.jpg,10What,1,2,4,,520902,400,0,204,bRMS
205,2,Chrome 96 (96.0.4664.110),TRUE,TRUE,B,FALSE,Mac OS X 10_14_6,,1486.4,df42887_e_043.jpg,10What,0,2,4,,522897,400,0,205,bRMS
206,2,Chrome 96 (96.0.4664.110),TRUE,TRUE,Y,FALSE,Mac OS X 10_14_6,,1094.9,f42887_e_238.jpg,10What,0,2,4,,524514,400,0,206,bRMS
207,2,Chrome 96 (96.0.4664.110),TRUE,TRUE,B,FALSE,Mac OS X 10_14_6,,1089.2,df42887_e_173.jpg,10What,0,2,4,,526118,400,0,207,bRMS
208,2,Chrome 96 (96.0.4664.110),TRUE,TRUE,B,FALSE,Mac OS X 10_14_6,,1151.2,df42887_e_123.jpg,10What,0,2,4,,527797,400,0,208,bRMS
209,2,Chrome 96 (96.0.4664.110),TRUE,TRUE,B,FALSE,Mac OS X 10_14_6,,956.7,df42887_e_033.jpg,10What,0,2,4,,529260,400,0,209,bRMS
210,2,Chrome 96 (96.0.4664.110),TRUE,TRUE,B,FALSE,Mac OS X 10_14_6,,1291.9,df42887_e_233.jpg,10What,1,2,4,,531059,400,0,210,bRMS
211,2,Chrome 96 (96.0.4664.110),TRUE,TRUE,B,FALSE,Mac OS X 10_14_6,,1310.6,df42887_e_133.jpg,10What,1,2,4,,532892,400,0,211,bRMS
212,2,Chrome 96 (96.0.4664.110),TRUE,TRUE,B,FALSE,Mac OS X 10_14_6,,1137.3,df42887_e_143.jpg,10What,0,2,4,,534542,400,0,212,bRMS
213,2,Chrome 96 (96.0.4664.110),TRUE,TRUE,Y,FALSE,Mac OS X 10_14_6,,1200.6,f42887_e_188.jpg,10What,0,2,4,,536258,400,0,213,bRMS
214,2,Chrome 96 (96.0.4664.110),TRUE,TRUE,B,FALSE,Mac OS X 10_14_6,,1079.1,df42887_e_203.jpg,10What,0,2,4,,537859,400,0,214,bRMS
215,2,Chrome 96 (96.0.4664.110),TRUE,TRUE,Y,FALSE,Mac OS X 10_14_6,,1379.4,f42887_e_038.jpg,10What,1,2,4,,539753,400,0,215,bRMS
216,2,Chrome 96 (96.0.4664.110),TRUE,TRUE,B,FALSE,Mac OS X 10_14_6,,1333.2,df42887_e_253.jpg,10What,1,2,4,,541598,400,0,216,bRMS
217,2,Chrome 96 (96.0.4664.110),TRUE,TRUE,Y,FALSE,Mac OS X 10_14_6,,1084,f42887_e_078.jpg,10What,0,2,4,,543202,400,0,217,bRMS
218,2,Chrome 96 (96.0.4664.110),TRUE,TRUE,Y,FALSE,Mac OS X 10_14_6,,1047,f42887_e_278.jpg,10What,0,2,4,,544759,400,0,218,bRMS
219,2,Chrome 96 (96.0.4664.110),TRUE,TRUE,Y,FALSE,Mac OS X 10_14_6,,889.9,f42887_e_268.jpg,10What,0,2,4,,546165,400,0,219,bRMS
220,2,Chrome 96 (96.0.4664.110),TRUE,TRUE,Y,FALSE,Mac OS X 10_14_6,,769.2,f42887_e_148.jpg,10What,0,2,4,,547454,400,0,220,bRMS
221,2,Chrome 96 (96.0.4664.110),TRUE,TRUE,Y,FALSE,Mac OS X 10_14_6,,704.3,f42887_e_248.jpg,10What,0,2,4,,548670,400,0,221,bRMS
222,2,Chrome 96 (96.0.4664.110),TRUE,TRUE,Y,FALSE,Mac OS X 10_14_6,,1670.3,f42887_e_128.jpg,10What,0,2,4,,550866,400,0,222,bRMS
223,2,Chrome 96 (96.0.4664.110),TRUE,TRUE,Y,FALSE,Mac OS X 10_14_6,,1195.9,f42887_e_018.jpg,10What,1,2,4,,552575,400,0,223,bRMS
224,2,Chrome 96 (96.0.4664.110),TRUE,TRUE,B,FALSE,Mac OS X 10_14_6,,1071.1,df42887_e_193.jpg,10What,0,2,4,,554156,400,0,224,bRMS
225,2,Chrome 96 (96.0.4664.110),TRUE,TRUE,B,FALSE,Mac OS X 10_14_6,,952.7,df42887_e_073.jpg,10What,0,2,4,,555637,400,0,225,bRMS
226,2,Chrome 96 (96.0.4664.110),TRUE,TRUE,B,FALSE,Mac OS X 10_14_6,,1170.2,df42887_e_103.jpg,10What,1,2,4,,557321,400,0,226,bRMS
227,2,Chrome 96 (96.0.4664.110),TRUE,TRUE,Y,FALSE,Mac OS X 10_14_6,,1008,f42887_e_178.jpg,10What,1,2,4,,558839,400,0,227,bRMS
228,2,Chrome 96 (96.0.4664.110),TRUE,TRUE,Y,FALSE,Mac OS X 10_14_6,,1249.5,f42887_e_288.jpg,10What,0,2,4,,560596,400,0,228,bRMS
229,2,Chrome 96 (96.0.4664.110),TRUE,TRUE,B,FALSE,Mac OS X 10_14_6,,1114.4,df42887_e_243.jpg,10What,0,2,4,,562234,400,0,229,bRMS
230,2,Chrome 96 (96.0.4664.110),TRUE,TRUE,B,FALSE,Mac OS X 10_14_6,,946.5,df42887_e_083.jpg,10What,0,2,4,,563688,400,0,230,bRMS
231,2,Chrome 96 (96.0.4664.110),TRUE,TRUE,Y,FALSE,Mac OS X 10_14_6,,1305.7,f42887_e_068.jpg,10What,1,2,4,,565505,400,0,231,bRMS
232,2,Chrome 96 (96.0.4664.110),TRUE,TRUE,B,FALSE,Mac OS X 10_14_6,,799,df42887_e_003.jpg,10What,1,2,4,,566826,400,0,232,bRMS
233,2,Chrome 96 (96.0.4664.110),TRUE,TRUE,B,FALSE,Mac OS X 10_14_6,,766.7,df42887_e_283.jpg,10What,1,2,4,,568102,400,0,233,bRMS
234,2,Chrome 96 (96.0.4664.110),TRUE,TRUE,Y,FALSE,Mac OS X 10_14_6,,1036.2,f42887_e_008.jpg,10What,1,2,4,,569651,400,0,234,bRMS
235,2,Chrome 96 (96.0.4664.110),TRUE,TRUE,Y,FALSE,Mac OS X 10_14_6,,1177.7,f42887_e_098.jpg,10What,0,2,4,,571352,400,0,235,bRMS
236,2,Chrome 96 (96.0.4664.110),TRUE,TRUE,B,FALSE,Mac OS X 10_14_6,,918.3,df42887_e_093.jpg,10What,0,2,4,,572789,400,0,236,bRMS
237,2,Chrome 96 (96.0.4664.110),TRUE,TRUE,Y,FALSE,Mac OS X 10_14_6,,1072.6,f42887_e_138.jpg,10What,0,2,4,,574376,400,0,237,bRMS
238,2,Chrome 96 (96.0.4664.110),TRUE,TRUE,Y,FALSE,Mac OS X 10_14_6,,798.4,f42887_e_028.jpg,10What,0,2,4,,575706,400,0,238,bRMS
239,2,Chrome 96 (96.0.4664.110),TRUE,TRUE,Y,FALSE,Mac OS X 10_14_6,,1208.1,f42887_e_048.jpg,10What,1,2,4,,577424,400,0,239,bRMS
240,2,Chrome 96 (96.0.4664.110),TRUE,TRUE,Y,FALSE,Mac OS X 10_14_6,,1144.8,f42887_e_088.jpg,10What,0,2,4,,579077,400,0,240,bRMS
241,2,Chrome 96 (96.0.4664.110),TRUE,TRUE,B,FALSE,Mac OS X 10_14_6,,831.7,df42887_e_273.jpg,10What,1,2,4,,580431,400,0,241,bRMS
242,2,Chrome 96 (96.0.4664.110),TRUE,TRUE,Y,FALSE,Mac OS X 10_14_6,,977.5,f42887_e_058.jpg,10What,0,2,4,,581923,400,0,242,bRMS
243,2,Chrome 96 (96.0.4664.110),TRUE,TRUE,B,FALSE,Mac OS X 10_14_6,,854.1,df42887_e_223.jpg,10What,1,2,4,,583302,400,0,243,bRMS
244,2,Chrome 96 (96.0.4664.110),TRUE,TRUE,Y,FALSE,Mac OS X 10_14_6,,867.5,f42887_e_108.jpg,10What,1,2,4,,584688,400,0,244,bRMS
245,2,Chrome 96 (96.0.4664.110),TRUE,TRUE,B,FALSE,Mac OS X 10_14_6,,842.1,f42887_e_258.jpg,10What,0,2,4,,586050,400,0,245,bRMS
246,2,Chrome 96 (96.0.4664.110),TRUE,TRUE,Y,FALSE,Mac OS X 10_14_6,,1131.7,df42887_e_163.jpg,10What,0,2,4,,587703,400,0,246,bRMS
247,2,Chrome 96 (96.0.4664.110),TRUE,TRUE,B,FALSE,Mac OS X 10_14_6,,1121.3,df42887_e_263.jpg,10What,1,2,4,,589341,400,0,247,bRMS
248,2,Chrome 96 (96.0.4664.110),TRUE,TRUE,B,FALSE,Mac OS X 10_14_6,,910.8,df42887_e_153.jpg,10What,1,2,4,,590765,400,0,248,bRMS
249,,,,,,,,,3079,,,,,,,594250,,,249,instructions
250,2,Chrome 96 (96.0.4664.110),TRUE,TRUE,B,FALSE,Mac OS X 10_14_6,,1224.4,df42887_e_009.jpg,5What,1,3,4,,595592,400,0,250,bRMS
251,2,Chrome 96 (96.0.4664.110),TRUE,TRUE,B,FALSE,Mac OS X 10_14_6,,978.7,df42887_e_029.jpg,5What,1,3,4,,597085,400,0,251,bRMS
252,2,Chrome 96 (96.0.4664.110),TRUE,TRUE,Y,FALSE,Mac OS X 10_14_6,,1313.2,df42887_e_249.jpg,5What,0,3,4,,598913,400,0,252,bRMS
253,2,Chrome 96 (96.0.4664.110),TRUE,TRUE,B,FALSE,Mac OS X 10_14_6,,883.6,df42887_e_289.jpg,5What,1,3,4,,600326,400,0,253,bRMS
254,2,Chrome 96 (96.0.4664.110),TRUE,TRUE,B,FALSE,Mac OS X 10_14_6,,970.4,df42887_e_279.jpg,5What,1,3,4,,601804,400,0,254,bRMS
255,2,Chrome 96 (96.0.4664.110),TRUE,TRUE,B,FALSE,Mac OS X 10_14_6,,845.2,df42887_e_109.jpg,5What,1,3,4,,603172,400,0,255,bRMS
256,2,Chrome 96 (96.0.4664.110),TRUE,TRUE,B,FALSE,Mac OS X 10_14_6,,1288.3,df42887_e_069.jpg,5What,0,3,4,,604976,400,0,256,bRMS
257,2,Chrome 96 (96.0.4664.110),TRUE,TRUE,B,FALSE,Mac OS X 10_14_6,,978.4,df42887_e_119.jpg,5What,0,3,4,,606467,400,0,257,bRMS
258,2,Chrome 96 (96.0.4664.110),TRUE,TRUE,Y,FALSE,Mac OS X 10_14_6,,1515.2,f42887_e_114.jpg,5What,1,3,4,,608511,400,0,258,bRMS
259,2,Chrome 96 (96.0.4664.110),TRUE,TRUE,Y,FALSE,Mac OS X 10_14_6,,1709,f42887_e_184.jpg,5What,1,3,4,,610736,400,0,259,bRMS
260,2,Chrome 96 (96.0.4664.110),TRUE,TRUE,B,FALSE,Mac OS X 10_14_6,,1185.5,df42887_e_209.jpg,5What,0,3,4,,612434,400,0,260,bRMS
261,2,Chrome 96 (96.0.4664.110),TRUE,TRUE,Y,FALSE,Mac OS X 10_14_6,,1533.9,f42887_e_074.jpg,5What,0,3,4,,614493,400,0,261,bRMS
262,2,Chrome 96 (96.0.4664.110),TRUE,TRUE,Y,FALSE,Mac OS X 10_14_6,,1685.2,f42887_e_144.jpg,5What,1,3,4,,616685,400,0,262,bRMS
263,2,Chrome 96 (96.0.4664.110),TRUE,TRUE,Y,FALSE,Mac OS X 10_14_6,,1543.2,f42887_e_014.jpg,5What,1,3,4,,618749,400,0,263,bRMS
264,2,Chrome 96 (96.0.4664.110),TRUE,TRUE,B,FALSE,Mac OS X 10_14_6,,1011.7,df42887_e_189.jpg,5What,1,3,4,,620266,400,0,264,bRMS
265,2,Chrome 96 (96.0.4664.110),TRUE,TRUE,Y,FALSE,Mac OS X 10_14_6,,1128.7,f42887_e_084.jpg,5What,1,3,4,,621906,400,0,265,bRMS
266,2,Chrome 96 (96.0.4664.110),TRUE,TRUE,B,FALSE,Mac OS X 10_14_6,,1112.4,df42887_e_179.jpg,5What,0,3,4,,623544,400,0,266,bRMS
267,2,Chrome 96 (96.0.4664.110),TRUE,TRUE,Y,FALSE,Mac OS X 10_14_6,,1091.6,f42887_e_214.jpg,5What,1,3,4,,625150,400,0,267,bRMS
268,2,Chrome 96 (96.0.4664.110),TRUE,TRUE,B,FALSE,Mac OS X 10_14_6,,1674.9,df42887_e_299.jpg,5What,0,3,4,,627341,400,0,268,bRMS
269,2,Chrome 96 (96.0.4664.110),TRUE,TRUE,B,FALSE,Mac OS X 10_14_6,,1297.4,df42887_e_039.jpg,5What,1,3,4,,629168,400,0,269,bRMS
270,2,Chrome 96 (96.0.4664.110),TRUE,TRUE,Y,FALSE,Mac OS X 10_14_6,,1367.5,f42887_e_244.jpg,5What,0,3,4,,631046,400,0,270,bRMS
271,2,Chrome 96 (96.0.4664.110),TRUE,TRUE,Y,FALSE,Mac OS X 10_14_6,,1450.6,f42887_e_264.jpg,5What,1,3,4,,633008,400,0,271,bRMS
272,2,Chrome 96 (96.0.4664.110),TRUE,TRUE,B,FALSE,Mac OS X 10_14_6,,1114.9,df42887_e_049.jpg,5What,1,3,4,,634639,400,0,272,bRMS
273,2,Chrome 96 (96.0.4664.110),TRUE,TRUE,Y,FALSE,Mac OS X 10_14_6,,1119,f42887_e_254.jpg,5What,1,3,4,,636274,400,0,273,bRMS
274,2,Chrome 96 (96.0.4664.110),TRUE,TRUE,B,FALSE,Mac OS X 10_14_6,,1009.1,df42887_e_019.jpg,5What,1,3,4,,637796,400,0,274,bRMS
275,2,Chrome 96 (96.0.4664.110),TRUE,TRUE,B,FALSE,Mac OS X 10_14_6,,1145.1,df42887_e_219.jpg,5What,0,3,4,,639451,400,0,275,bRMS
276,2,Chrome 96 (96.0.4664.110),TRUE,TRUE,B,FALSE,Mac OS X 10_14_6,,1004.9,df42887_e_059.jpg,5What,1,3,4,,640962,400,0,276,bRMS
277,2,Chrome 96 (96.0.4664.110),TRUE,TRUE,Y,FALSE,Mac OS X 10_14_6,,1088.2,f42887_e_174.jpg,5What,0,3,4,,642563,400,0,277,bRMS
278,2,Chrome 96 (96.0.4664.110),TRUE,TRUE,B,FALSE,Mac OS X 10_14_6,,920.6,f42887_e_034.jpg,5What,1,3,4,,644009,400,0,278,bRMS
279,2,Chrome 96 (96.0.4664.110),TRUE,TRUE,Y,FALSE,Mac OS X 10_14_6,,1316,f42887_e_094.jpg,5What,1,3,4,,645835,400,0,279,bRMS
280,2,Chrome 96 (96.0.4664.110),TRUE,TRUE,Y,FALSE,Mac OS X 10_14_6,,1333.3,f42887_e_024.jpg,5What,0,3,4,,647681,400,0,280,bRMS
281,2,Chrome 96 (96.0.4664.110),TRUE,TRUE,Y,FALSE,Mac OS X 10_14_6,,1239.6,f42887_e_284.jpg,5What,1,3,4,,649433,400,0,281,bRMS
282,2,Chrome 96 (96.0.4664.110),TRUE,TRUE,B,FALSE,Mac OS X 10_14_6,,1183,df42887_e_229.jpg,5What,0,3,4,,651136,400,0,282,bRMS
283,2,Chrome 96 (96.0.4664.110),TRUE,TRUE,Y,FALSE,Mac OS X 10_14_6,,1413.1,f42887_e_064.jpg,5What,0,3,4,,653059,400,0,283,bRMS
284,2,Chrome 96 (96.0.4664.110),TRUE,TRUE,Y,FALSE,Mac OS X 10_14_6,,1141.9,f42887_e_274.jpg,5What,1,3,4,,654709,400,0,284,bRMS
285,2,Chrome 96 (96.0.4664.110),TRUE,TRUE,B,FALSE,Mac OS X 10_14_6,,1062.5,df42887_e_079.jpg,5What,1,3,4,,656297,400,0,285,bRMS
286,2,Chrome 96 (96.0.4664.110),TRUE,TRUE,Y,FALSE,Mac OS X 10_14_6,,1567.5,f42887_e_004.jpg,5What,1,3,4,,658376,400,0,286,bRMS
287,2,Chrome 96 (96.0.4664.110),TRUE,TRUE,B,FALSE,Mac OS X 10_14_6,,1352.3,df42887_e_089.jpg,5What,0,3,4,,660244,400,0,287,bRMS
288,2,Chrome 96 (96.0.4664.110),TRUE,TRUE,Y,FALSE,Mac OS X 10_14_6,,1383.7,f42887_e_134.jpg,5What,1,3,4,,662152,400,0,288,bRMS
289,2,Chrome 96 (96.0.4664.110),TRUE,TRUE,Y,FALSE,Mac OS X 10_14_6,,1080.8,f42887_e_044.jpg,5What,0,3,4,,663745,400,0,289,bRMS
290,2,Chrome 96 (96.0.4664.110),TRUE,TRUE,B,FALSE,Mac OS X 10_14_6,,1261.3,df42887_e_099.jpg,5What,0,3,4,,665519,400,0,290,bRMS
291,2,Chrome 96 (96.0.4664.110),TRUE,TRUE,Y,FALSE,Mac OS X 10_14_6,,978.9,f42887_e_194.jpg,5What,1,3,4,,667024,400,0,291,bRMS
292,2,Chrome 96 (96.0.4664.110),TRUE,TRUE,B,FALSE,Mac OS X 10_14_6,,1065.8,df42887_e_139.jpg,5What,0,3,4,,668595,400,0,292,bRMS
293,2,Chrome 96 (96.0.4664.110),TRUE,TRUE,Y,FALSE,Mac OS X 10_14_6,,1254.7,f42887_e_294.jpg,5What,0,3,4,,670362,400,0,293,bRMS
294,2,Chrome 96 (96.0.4664.110),TRUE,TRUE,Y,FALSE,Mac OS X 10_14_6,,1220.5,f42887_e_164.jpg,5What,1,3,4,,672101,400,0,294,bRMS
295,2,Chrome 96 (96.0.4664.110),TRUE,TRUE,B,FALSE,Mac OS X 10_14_6,,891.9,df42887_e_269.jpg,5What,0,3,4,,673502,400,0,295,bRMS
296,2,Chrome 96 (96.0.4664.110),TRUE,TRUE,B,FALSE,Mac OS X 10_14_6,,1132,df42887_e_239.jpg,5What,0,3,4,,675143,400,0,296,bRMS
297,2,Chrome 96 (96.0.4664.110),TRUE,TRUE,B,FALSE,Mac OS X 10_14_6,,893.1,df42887_e_259.jpg,5What,0,3,4,,676569,400,0,297,bRMS
298,2,Chrome 96 (96.0.4664.110),TRUE,TRUE,B,FALSE,Mac OS X 10_14_6,,1100.4,df42887_e_159.jpg,5What,1,3,4,,678180,400,0,298,bRMS
299,2,Chrome 96 (96.0.4664.110),TRUE,TRUE,B,FALSE,Mac OS X 10_14_6,,1128,df42887_e_149.jpg,5What,0,3,4,,679833,400,0,299,bRMS
300,2,Chrome 96 (96.0.4664.110),TRUE,TRUE,B,FALSE,Mac OS X 10_14_6,,1270.7,f42887_e_124.jpg,5What,1,3,4,,681611,400,0,300,bRMS
301,2,Chrome 96 (96.0.4664.110),TRUE,TRUE,Y,FALSE,Mac OS X 10_14_6,,1538.5,f42887_e_104.jpg,5What,1,3,4,,683662,400,0,301,bRMS
302,2,Chrome 96 (96.0.4664.110),TRUE,TRUE,B,FALSE,Mac OS X 10_14_6,,1363.1,df42887_e_129.jpg,5What,0,3,4,,685546,400,0,302,bRMS
303,2,Chrome 96 (96.0.4664.110),TRUE,TRUE,B,FALSE,Mac OS X 10_14_6,,945,df42887_e_199.jpg,5What,0,3,4,,687008,400,0,303,bRMS
304,2,Chrome 96 (96.0.4664.110),TRUE,TRUE,Y,FALSE,Mac OS X 10_14_6,,1292.3,f42887_e_224.jpg,5What,1,3,4,,688812,400,0,304,bRMS
305,2,Chrome 96 (96.0.4664.110),TRUE,TRUE,Y,FALSE,Mac OS X 10_14_6,,1154.6,f42887_e_154.jpg,5What,0,3,4,,690484,400,0,305,bRMS
306,2,Chrome 96 (96.0.4664.110),TRUE,TRUE,Y,FALSE,Mac OS X 10_14_6,,1218,f42887_e_234.jpg,5What,1,3,4,,692214,400,0,306,bRMS
307,2,Chrome 96 (96.0.4664.110),TRUE,TRUE,Y,FALSE,Mac OS X 10_14_6,,1036.8,f42887_e_054.jpg,5What,0,3,4,,693769,400,0,307,bRMS
308,2,Chrome 96 (96.0.4664.110),TRUE,TRUE,Y,FALSE,Mac OS X 10_14_6,,1657.3,f42887_e_204.jpg,5What,1,3,4,,695956,400,0,308,bRMS
309,2,Chrome 96 (96.0.4664.110),TRUE,TRUE,B,FALSE,Mac OS X 10_14_6,,1258.7,df42887_e_169.jpg,5What,0,3,4,,697726,400,0,309,bRMS
310,,,,,,,,,2764,,,,,,,700896,,,310,instructions
311,,,,,,,,,2075,,,,,,,702972,,,311,instructions
312,,,,,,,,"{""Q0"":0,""Q1"":1,""Q2"":0,""Q3"":0,""Q4"":0,""Q5"":3,""Q6"":2,""Q7"":1,""Q8"":4,""Q9"":2,""Q10"":4}",35861,,,,,,,738838,,,312,survey-likert
313,,,,,,,,,1859,,,,,,,740698,,,313,instructions
314,,,,,,,,"{""Q0"":2,""Q1"":3,""Q2"":3,""Q3"":0,""Q4"":0,""Q5"":0,""Q6"":1,""Q7"":1,""Q8"":0,""Q9"":0,""Q10"":1,""Q11"":2,""Q12"":1,""Q13"":3,""Q14"":3}",37578,,,,,,,778282,,,314,survey-likert
315,,,,,,,,,1518,,,,,,,779800,,,315,instructions
316,,,,,,,,"{""Q0"":0,""Q1"":0,""Q2"":2,""Q3"":1,""Q4"":1,""Q5"":1,""Q6"":0,""Q7"":0,""Q8"":0,""Q9"":2,""Q10"":0,""Q11"":1,""Q12"":3,""Q13"":0,""Q14"":0,""Q15"":1,""Q16"":3,""Q17"":1,""Q18"":3,""Q19"":1}",68556,,,,,,,848363,,,316,survey-likert
317,,,,,,,,"{""Q0"":""W""}",3691,,,,,,,852055,,,317,survey-text
318,,,,,,,,"{""Q0"":""26""}",3842,,,,,,,855899,,,318,survey-text
319,,,,,,,,"{""Q0"":2,""Q1"":4}",10301,,,,,,,866202,,,319,survey-likert
320,,,,,,,,,9016,,,,,,,875218,,,320,instructions
0,,,,,,,,,,,,,,,TRUE,9692,,,0,fullscreen
1,,,,,,,,"{""Q0"":""60ddf5abb47cc02285793096""}",8241,,,,,,,17935,,,1,survey-text
2,,,,,,,,"{""Q0"":0}",10113,,,,,,,28049,,,2,survey-likert
3,,,,,,,,,6895,,,,,,,34944,,,3,instructions
4,,,,,,,,,21235,,,,,,,56180,,,4,instructions
5,1,Chrome 97 (97.0.4692.71),TRUE,TRUE,Q,FALSE,Mac OS X 10_13_6,,4341.2,f42887_e_030.jpg,10controlWhere,1,2,16,,60616,400,0,5,bRMS
6,1,Chrome 97 (97.0.4692.71),TRUE,TRUE,P,FALSE,Mac OS X 10_13_6,,1831.3,f42887_e_290.jpg,10controlWhere,0,2,16,,62943,400,0,6,bRMS
7,1,Chrome 97 (97.0.4692.71),TRUE,TRUE,P,FALSE,Mac OS X 10_13_6,,1095.1,f42887_e_080.jpg,10controlWhere,0,2,16,,64528,400,0,7,bRMS
8,1,Chrome 97 (97.0.4692.71),TRUE,TRUE,Q,FALSE,Mac OS X 10_13_6,,2962.1,df42887_e_135.jpg,10controlWhere,1,2,16,,67978,400,0,8,bRMS
9,1,Chrome 97 (97.0.4692.71),TRUE,TRUE,Q,FALSE,Mac OS X 10_13_6,,2622.9,df42887_e_015.jpg,10controlWhere,1,2,16,,71098,400,0,9,bRMS
10,1,Chrome 97 (97.0.4692.71),TRUE,TRUE,Q,FALSE,Mac OS X 10_13_6,,1592.6,f42887_e_010.jpg,10controlWhere,1,2,16,,73174,400,0,10,bRMS
11,1,Chrome 97 (97.0.4692.71),TRUE,TRUE,P,FALSE,Mac OS X 10_13_6,,2062,df42887_e_235.jpg,10controlWhere,0,2,16,,75720,400,0,11,bRMS
12,1,Chrome 97 (97.0.4692.71),TRUE,TRUE,Q,FALSE,Mac OS X 10_13_6,,1363.9,f42887_e_160.jpg,10controlWhere,1,2,16,,77581,400,0,12,bRMS
13,1,Chrome 97 (97.0.4692.71),TRUE,TRUE,P,FALSE,Mac OS X 10_13_6,,1588,f42887_e_220.jpg,10controlWhere,0,2,16,,79657,400,0,13,bRMS
14,1,Chrome 97 (97.0.4692.71),TRUE,TRUE,P,FALSE,Mac OS X 10_13_6,,1605.6,df42887_e_195.jpg,10controlWhere,0,2,16,,81748,400,0,14,bRMS
15,1,Chrome 97 (97.0.4692.71),TRUE,TRUE,P,FALSE,Mac OS X 10_13_6,,1781.5,f42887_e_040.jpg,10controlWhere,0,2,16,,84015,400,0,15,bRMS
16,1,Chrome 97 (97.0.4692.71),TRUE,TRUE,Q,FALSE,Mac OS X 10_13_6,,1365.1,df42887_e_035.jpg,10controlWhere,1,2,16,,85870,400,0,16,bRMS
17,1,Chrome 97 (97.0.4692.71),TRUE,TRUE,P,FALSE,Mac OS X 10_13_6,,2533,f42887_e_240.jpg,10controlWhere,0,2,16,,88899,400,0,17,bRMS
18,1,Chrome 97 (97.0.4692.71),TRUE,TRUE,P,FALSE,Mac OS X 10_13_6,,1356,f42887_e_150.jpg,10controlWhere,0,2,16,,90740,400,0,18,bRMS
19,1,Chrome 97 (97.0.4692.71),TRUE,TRUE,Q,FALSE,Mac OS X 10_13_6,,1218.9,df42887_e_005.jpg,10controlWhere,1,2,16,,92442,400,0,19,bRMS
20,1,Chrome 97 (97.0.4692.71),TRUE,TRUE,P,FALSE,Mac OS X 10_13_6,,1211.6,df42887_e_045.jpg,10controlWhere,0,2,16,,94151,400,0,20,bRMS
21,1,Chrome 97 (97.0.4692.71),TRUE,TRUE,Q,FALSE,Mac OS X 10_13_6,,1605.6,df42887_e_275.jpg,10controlWhere,1,2,16,,96244,400,0,21,bRMS
22,1,Chrome 97 (97.0.4692.71),TRUE,TRUE,Q,FALSE,Mac OS X 10_13_6,,1591.5,df42887_e_075.jpg,10controlWhere,1,2,16,,98322,400,0,22,bRMS
23,1,Chrome 97 (97.0.4692.71),TRUE,TRUE,Q,FALSE,Mac OS X 10_13_6,,2264.1,df42887_e_175.jpg,10controlWhere,1,2,16,,101071,400,0,23,bRMS
24,1,Chrome 97 (97.0.4692.71),TRUE,TRUE,P,FALSE,Mac OS X 10_13_6,,1377,f42887_e_210.jpg,10controlWhere,0,2,16,,102933,400,0,24,bRMS
25,1,Chrome 97 (97.0.4692.71),TRUE,TRUE,Q,FALSE,Mac OS X 10_13_6,,1580,df42887_e_105.jpg,10controlWhere,1,2,16,,105010,400,0,25,bRMS
26,1,Chrome 97 (97.0.4692.71),TRUE,TRUE,P,FALSE,Mac OS X 10_13_6,,1463.9,df42887_e_245.jpg,10controlWhere,0,2,16,,106960,400,0,26,bRMS
27,1,Chrome 97 (97.0.4692.71),TRUE,TRUE,Q,FALSE,Mac OS X 10_13_6,,1624.9,f42887_e_280.jpg,10controlWhere,1,2,16,,109069,400,0,27,bRMS
28,1,Chrome 97 (97.0.4692.71),TRUE,TRUE,Q,FALSE,Mac OS X 10_13_6,,1030.9,f42887_e_260.jpg,10controlWhere,1,2,16,,110588,400,0,28,bRMS
29,1,Chrome 97 (97.0.4692.71),TRUE,TRUE,P,FALSE,Mac OS X 10_13_6,,1104.3,f42887_e_070.jpg,10controlWhere,0,2,16,,112187,400,0,29,bRMS
30,1,Chrome 97 (97.0.4692.71),TRUE,TRUE,Q,FALSE,Mac OS X 10_13_6,,960.9,f42887_e_120.jpg,10controlWhere,1,2,16,,113635,400,0,30,bRMS
31,1,Chrome 97 (97.0.4692.71),TRUE,TRUE,Q,FALSE,Mac OS X 10_13_6,,1316.3,df42887_e_265.jpg,10controlWhere,1,2,16,,115438,400,0,31,bRMS
32,1,Chrome 97 (97.0.4692.71),TRUE,TRUE,Q,FALSE,Mac OS X 10_13_6,,1281.4,df42887_e_025.jpg,10controlWhere,1,2,16,,117227,400,0,32,bRMS
33,1,Chrome 97 (97.0.4692.71),TRUE,TRUE,Q,FALSE,Mac OS X 10_13_6,,1178.8,df42887_e_145.jpg,10controlWhere,1,2,16,,118890,400,0,33,bRMS
34,1,Chrome 97 (97.0.4692.71),TRUE,TRUE,P,FALSE,Mac OS X 10_13_6,,1014.2,df42887_e_155.jpg,10controlWhere,0,2,16,,120393,400,0,34,bRMS
35,1,Chrome 97 (97.0.4692.71),TRUE,TRUE,P,FALSE,Mac OS X 10_13_6,,1024.4,df42887_e_225.jpg,10controlWhere,0,2,16,,121915,400,0,35,bRMS
36,1,Chrome 97 (97.0.4692.71),TRUE,TRUE,P,FALSE,Mac OS X 10_13_6,,1366.7,f42887_e_000.jpg,10controlWhere,0,2,16,,123769,400,0,36,bRMS
37,1,Chrome 97 (97.0.4692.71),TRUE,TRUE,Q,FALSE,Mac OS X 10_13_6,,1391.5,df42887_e_285.jpg,10controlWhere,1,2,16,,125645,400,0,37,bRMS
38,1,Chrome 97 (97.0.4692.71),TRUE,TRUE,P,FALSE,Mac OS X 10_13_6,,1220.9,df42887_e_085.jpg,10controlWhere,0,2,16,,127361,400,0,38,bRMS
39,1,Chrome 97 (97.0.4692.71),TRUE,TRUE,Q,FALSE,Mac OS X 10_13_6,,1272.7,f42887_e_170.jpg,10controlWhere,1,2,16,,129121,400,0,39,bRMS
40,1,Chrome 97 (97.0.4692.71),TRUE,TRUE,Q,FALSE,Mac OS X 10_13_6,,1075.1,f42887_e_140.jpg,10controlWhere,1,2,16,,130692,400,0,40,bRMS
41,1,Chrome 97 (97.0.4692.71),TRUE,TRUE,Q,FALSE,Mac OS X 10_13_6,,1343.1,df42887_e_205.jpg,10controlWhere,1,2,16,,132525,400,0,41,bRMS
42,1,Chrome 97 (97.0.4692.71),TRUE,TRUE,Q,FALSE,Mac OS X 10_13_6,,1384.2,f42887_e_270.jpg,10controlWhere,1,2,16,,134391,400,0,42,bRMS
43,1,Chrome 97 (97.0.4692.71),TRUE,TRUE,P,FALSE,Mac OS X 10_13_6,,1350.7,df42887_e_165.jpg,10controlWhere,0,2,16,,136236,400,0,43,bRMS
44,1,Chrome 97 (97.0.4692.71),TRUE,TRUE,Q,FALSE,Mac OS X 10_13_6,,1222.5,df42887_e_115.jpg,10controlWhere,1,2,16,,137973,400,0,44,bRMS
45,1,Chrome 97 (97.0.4692.71),TRUE,TRUE,P,FALSE,Mac OS X 10_13_6,,1180.7,f42887_e_020.jpg,10controlWhere,0,2,16,,139640,400,0,45,bRMS
46,1,Chrome 97 (97.0.4692.71),TRUE,TRUE,P,FALSE,Mac OS X 10_13_6,,1628.3,f42887_e_100.jpg,10controlWhere,0,2,16,,141753,400,0,46,bRMS
47,1,Chrome 97 (97.0.4692.71),TRUE,TRUE,Q,FALSE,Mac OS X 10_13_6,,946.2,df42887_e_125.jpg,10controlWhere,1,2,16,,143191,400,0,47,bRMS
48,1,Chrome 97 (97.0.4692.71),TRUE,TRUE,P,FALSE,Mac OS X 10_13_6,,1303.4,f42887_e_250.jpg,10controlWhere,0,2,16,,144991,400,0,48,bRMS
49,1,Chrome 97 (97.0.4692.71),TRUE,TRUE,Q,FALSE,Mac OS X 10_13_6,,1312.4,df42887_e_185.jpg,10controlWhere,1,2,16,,146790,400,0,49,bRMS
50,1,Chrome 97 (97.0.4692.71),TRUE,TRUE,P,FALSE,Mac OS X 10_13_6,,1163.6,f42887_e_180.jpg,10controlWhere,0,2,16,,148444,400,0,50,bRMS
51,1,Chrome 97 (97.0.4692.71),TRUE,TRUE,P,FALSE,Mac OS X 10_13_6,,1484.9,df42887_e_295.jpg,10controlWhere,0,2,16,,150425,400,0,51,bRMS
52,1,Chrome 97 (97.0.4692.71),TRUE,TRUE,P,FALSE,Mac OS X 10_13_6,,1569.7,df42887_e_065.jpg,10controlWhere,0,2,16,,152483,400,0,52,bRMS
53,1,Chrome 97 (97.0.4692.71),TRUE,TRUE,Q,FALSE,Mac OS X 10_13_6,,1155.1,f42887_e_110.jpg,10controlWhere,1,2,16,,154138,400,0,53,bRMS
54,1,Chrome 97 (97.0.4692.71),TRUE,TRUE,P,FALSE,Mac OS X 10_13_6,,1264.4,f42887_e_130.jpg,10controlWhere,0,2,16,,155888,400,0,54,bRMS
55,1,Chrome 97 (97.0.4692.71),TRUE,TRUE,Q,FALSE,Mac OS X 10_13_6,,972.9,f42887_e_090.jpg,10controlWhere,1,2,16,,157347,400,0,55,bRMS
56,1,Chrome 97 (97.0.4692.71),TRUE,TRUE,Q,FALSE,Mac OS X 10_13_6,,1120.4,df42887_e_095.jpg,10controlWhere,1,2,16,,158964,400,0,56,bRMS
57,1,Chrome 97 (97.0.4692.71),TRUE,TRUE,P,FALSE,Mac OS X 10_13_6,,876.8,df42887_e_055.jpg,10controlWhere,0,2,16,,160326,400,0,57,bRMS
58,1,Chrome 97 (97.0.4692.71),TRUE,TRUE,P,FALSE,Mac OS X 10_13_6,,881.7,f42887_e_050.jpg,10controlWhere,0,2,16,,161696,400,0,58,bRMS
59,1,Chrome 97 (97.0.4692.71),TRUE,TRUE,Q,FALSE,Mac OS X 10_13_6,,726.4,f42887_e_200.jpg,10controlWhere,1,2,16,,162920,400,0,59,bRMS
60,1,Chrome 97 (97.0.4692.71),TRUE,TRUE,P,FALSE,Mac OS X 10_13_6,,990.4,f42887_e_190.jpg,10controlWhere,0,2,16,,164400,400,0,60,bRMS
61,1,Chrome 97 (97.0.4692.71),TRUE,TRUE,Q,FALSE,Mac OS X 10_13_6,,916.5,f42887_e_060.jpg,10controlWhere,1,2,16,,165813,400,0,61,bRMS
62,1,Chrome 97 (97.0.4692.71),TRUE,TRUE,P,FALSE,Mac OS X 10_13_6,,1062,df42887_e_215.jpg,10controlWhere,0,2,16,,167361,400,0,62,bRMS
63,1,Chrome 97 (97.0.4692.71),TRUE,TRUE,Q,FALSE,Mac OS X 10_13_6,,1123,df42887_e_255.jpg,10controlWhere,1,2,16,,168964,400,0,63,bRMS
64,1,Chrome 97 (97.0.4692.71),TRUE,TRUE,P,FALSE,Mac OS X 10_13_6,,1199.3,f42887_e_230.jpg,10controlWhere,0,2,16,,170652,400,0,64,bRMS
65,,,,,,,,,15204,,,,,,,186259,,,65,instructions
66,1,Chrome 97 (97.0.4692.71),TRUE,TRUE,Q,FALSE,Mac OS X 10_13_6,,1506.1,df42887_e_151.jpg,10Where,1,3,16,,187848,400,0,66,bRMS
67,1,Chrome 97 (97.0.4692.71),TRUE,TRUE,Q,FALSE,Mac OS X 10_13_6,,1287.3,f42887_e_216.jpg,10Where,1,3,16,,189624,400,0,67,bRMS
68,1,Chrome 97 (97.0.4692.71),TRUE,TRUE,Q,FALSE,Mac OS X 10_13_6,,1126,f42887_e_066.jpg,10Where,1,3,16,,191236,400,0,68,bRMS
69,1,Chrome 97 (97.0.4692.71),TRUE,TRUE,Q,FALSE,Mac OS X 10_13_6,,1402.6,df42887_e_031.jpg,10Where,1,3,16,,193124,400,0,69,bRMS
70,1,Chrome 97 (97.0.4692.71),TRUE,TRUE,P,FALSE,Mac OS X 10_13_6,,1090.1,df42887_e_021.jpg,10Where,0,3,16,,194701,400,0,70,bRMS
71,1,Chrome 97 (97.0.4692.71),TRUE,TRUE,P,FALSE,Mac OS X 10_13_6,,892.2,df42887_e_111.jpg,10Where,0,3,16,,196077,400,0,71,bRMS
72,1,Chrome 97 (97.0.4692.71),TRUE,TRUE,P,FALSE,Mac OS X 10_13_6,,1981.8,df42887_e_251.jpg,10Where,0,3,16,,198542,400,0,72,bRMS
73,1,Chrome 97 (97.0.4692.71),TRUE,TRUE,Q,FALSE,Mac OS X 10_13_6,,1598.5,df42887_e_231.jpg,10Where,1,3,16,,200630,400,0,73,bRMS
74,1,Chrome 97 (97.0.4692.71),TRUE,TRUE,Q,FALSE,Mac OS X 10_13_6,,1200.5,f42887_e_156.jpg,10Where,1,3,16,,202320,400,0,74,bRMS
75,1,Chrome 97 (97.0.4692.71),TRUE,TRUE,P,FALSE,Mac OS X 10_13_6,,1181.4,f42887_e_276.jpg,10Where,0,3,16,,203989,400,0,75,bRMS
76,1,Chrome 97 (97.0.4692.71),TRUE,TRUE,P,FALSE,Mac OS X 10_13_6,,2021,f42887_e_256.jpg,10Where,0,3,16,,206501,400,0,76,bRMS
77,1,Chrome 97 (97.0.4692.71),TRUE,TRUE,Q,FALSE,Mac OS X 10_13_6,,1329.2,f42887_e_096.jpg,10Where,1,3,16,,208315,400,0,77,bRMS
78,1,Chrome 97 (97.0.4692.71),TRUE,TRUE,Q,FALSE,Mac OS X 10_13_6,,1282.1,df42887_e_191.jpg,10Where,1,3,16,,210082,400,0,78,bRMS
79,1,Chrome 97 (97.0.4692.71),TRUE,TRUE,Q,FALSE,Mac OS X 10_13_6,,1818.1,df42887_e_121.jpg,10Where,1,3,16,,212388,400,0,79,bRMS
80,1,Chrome 97 (97.0.4692.71),TRUE,TRUE,P,FALSE,Mac OS X 10_13_6,,1176,df42887_e_201.jpg,10Where,0,3,16,,214050,400,0,80,bRMS
81,1,Chrome 97 (97.0.4692.71),TRUE,TRUE,P,FALSE,Mac OS X 10_13_6,,1358.8,df42887_e_261.jpg,10Where,0,3,16,,215898,400,0,81,bRMS
82,1,Chrome 97 (97.0.4692.71),TRUE,TRUE,P,FALSE,Mac OS X 10_13_6,,1188,f42887_e_016.jpg,10Where,0,3,16,,217572,400,0,82,bRMS
83,1,Chrome 97 (97.0.4692.71),TRUE,TRUE,P,FALSE,Mac OS X 10_13_6,,1293.2,df42887_e_011.jpg,10Where,0,3,16,,219352,400,0,83,bRMS
84,1,Chrome 97 (97.0.4692.71),TRUE,TRUE,P,FALSE,Mac OS X 10_13_6,,1481.8,f42887_e_026.jpg,10Where,0,3,16,,221324,400,0,84,bRMS
85,1,Chrome 97 (97.0.4692.71),TRUE,TRUE,Q,FALSE,Mac OS X 10_13_6,,1140.6,f42887_e_186.jpg,10Where,1,3,16,,222953,400,0,85,bRMS
86,1,Chrome 97 (97.0.4692.71),TRUE,TRUE,Q,FALSE,Mac OS X 10_13_6,,1646.4,f42887_e_076.jpg,10Where,1,3,16,,225084,400,0,86,bRMS
87,1,Chrome 97 (97.0.4692.71),TRUE,TRUE,Q,FALSE,Mac OS X 10_13_6,,1751,f42887_e_296.jpg,10Where,1,3,16,,227317,400,0,87,bRMS
88,1,Chrome 97 (97.0.4692.71),TRUE,TRUE,P,FALSE,Mac OS X 10_13_6,,1382.4,df42887_e_001.jpg,10Where,0,3,16,,229183,400,0,88,bRMS
89,1,Chrome 97 (97.0.4692.71),TRUE,TRUE,P,FALSE,Mac OS X 10_13_6,,1149.9,f42887_e_136.jpg,10Where,0,3,16,,230817,400,0,89,bRMS
90,1,Chrome 97 (97.0.4692.71),TRUE,TRUE,Q,FALSE,Mac OS X 10_13_6,,1364.4,df42887_e_091.jpg,10Where,1,3,16,,232669,400,0,90,bRMS
91,1,Chrome 97 (97.0.4692.71),TRUE,TRUE,P,FALSE,Mac OS X 10_13_6,,1204.5,df42887_e_061.jpg,10Where,0,3,16,,234361,400,0,91,bRMS
92,1,Chrome 97 (97.0.4692.71),TRUE,TRUE,Q,FALSE,Mac OS X 10_13_6,,1026.2,f42887_e_046.jpg,10Where,1,3,16,,235871,400,0,92,bRMS
93,1,Chrome 97 (97.0.4692.71),TRUE,TRUE,Q,FALSE,Mac OS X 10_13_6,,1841.2,df42887_e_221.jpg,10Where,1,3,16,,238197,400,0,93,bRMS
94,1,Chrome 97 (97.0.4692.71),TRUE,TRUE,Q,FALSE,Mac OS X 10_13_6,,2774.3,df42887_e_141.jpg,10Where,1,3,16,,241449,400,0,94,bRMS
95,1,Chrome 97 (97.0.4692.71),TRUE,TRUE,P,FALSE,Mac OS X 10_13_6,,1483.9,f42887_e_236.jpg,10Where,0,3,16,,243417,400,0,95,bRMS
96,1,Chrome 97 (97.0.4692.71),TRUE,TRUE,P,FALSE,Mac OS X 10_13_6,,2299.9,df42887_e_171.jpg,10Where,0,3,16,,246202,400,0,96,bRMS
97,1,Chrome 97 (97.0.4692.71),TRUE,TRUE,P,FALSE,Mac OS X 10_13_6,,1049,f42887_e_176.jpg,10Where,0,3,16,,247736,400,0,97,bRMS
98,1,Chrome 97 (97.0.4692.71),TRUE,TRUE,Q,FALSE,Mac OS X 10_13_6,,1273.9,df42887_e_291.jpg,10Where,1,3,16,,249494,400,0,98,bRMS
99,1,Chrome 97 (97.0.4692.71),TRUE,TRUE,P,FALSE,Mac OS X 10_13_6,,1085.4,df42887_e_051.jpg,10Where,0,3,16,,251068,400,0,99,bRMS
100,1,Chrome 97 (97.0.4692.71),TRUE,TRUE,Q,FALSE,Mac OS X 10_13_6,,1324.2,f42887_e_006.jpg,10Where,1,3,16,,252881,400,0,100,bRMS
101,1,Chrome 97 (97.0.4692.71),TRUE,TRUE,P,FALSE,Mac OS X 10_13_6,,1586.8,f42887_e_056.jpg,10Where,0,3,16,,254955,400,0,101,bRMS
102,1,Chrome 97 (97.0.4692.71),TRUE,TRUE,P,FALSE,Mac OS X 10_13_6,,1252.4,f42887_e_106.jpg,10Where,0,3,16,,256695,400,0,102,bRMS
103,1,Chrome 97 (97.0.4692.71),TRUE,TRUE,P,FALSE,Mac OS X 10_13_6,,1290.5,df42887_e_281.jpg,10Where,0,3,16,,258473,400,0,103,bRMS
104,1,Chrome 97 (97.0.4692.71),TRUE,TRUE,Q,FALSE,Mac OS X 10_13_6,,1412.4,f42887_e_286.jpg,10Where,1,3,16,,260372,400,0,104,bRMS
105,1,Chrome 97 (97.0.4692.71),TRUE,TRUE,P,FALSE,Mac OS X 10_13_6,,1358.4,df42887_e_131.jpg,10Where,0,3,16,,262207,400,0,105,bRMS
106,1,Chrome 97 (97.0.4692.71),TRUE,TRUE,Q,FALSE,Mac OS X 10_13_6,,852,df42887_e_241.jpg,10Where,1,3,16,,263543,400,0,106,bRMS
107,1,Chrome 97 (97.0.4692.71),TRUE,TRUE,Q,FALSE,Mac OS X 10_13_6,,879,f42887_e_166.jpg,10Where,1,3,16,,264909,400,0,107,bRMS
108,1,Chrome 97 (97.0.4692.71),TRUE,TRUE,P,FALSE,Mac OS X 10_13_6,,1504.9,f42887_e_196.jpg,10Where,0,3,16,,266900,400,0,108,bRMS
109,1,Chrome 97 (97.0.4692.71),TRUE,TRUE,Q,FALSE,Mac OS X 10_13_6,,1348.9,f42887_e_086.jpg,10Where,1,3,16,,268727,400,0,109,bRMS
110,1,Chrome 97 (97.0.4692.71),TRUE,TRUE,Q,FALSE,Mac OS X 10_13_6,,3073.4,df42887_e_101.jpg,10Where,1,3,16,,272283,400,0,110,bRMS
111,1,Chrome 97 (97.0.4692.71),TRUE,TRUE,P,FALSE,Mac OS X 10_13_6,,1314.6,df42887_e_071.jpg,10Where,0,3,16,,274087,400,0,111,bRMS
112,1,Chrome 97 (97.0.4692.71),TRUE,TRUE,P,FALSE,Mac OS X 10_13_6,,2838.5,f42887_e_146.jpg,10Where,0,3,16,,277414,400,0,112,bRMS
113,1,Chrome 97 (97.0.4692.71),TRUE,TRUE,P,FALSE,Mac OS X 10_13_6,,1626.5,f42887_e_116.jpg,10Where,0,3,16,,279529,400,0,113,bRMS
114,1,Chrome 97 (97.0.4692.71),TRUE,TRUE,Q,FALSE,Mac OS X 10_13_6,,1363.9,f42887_e_126.jpg,10Where,1,3,16,,281377,400,0,114,bRMS
115,1,Chrome 97 (97.0.4692.71),TRUE,TRUE,Q,FALSE,Mac OS X 10_13_6,,2496.5,df42887_e_041.jpg,10Where,1,3,16,,284357,400,0,115,bRMS
116,1,Chrome 97 (97.0.4692.71),TRUE,TRUE,Q,FALSE,Mac OS X 10_13_6,,1251.9,f42887_e_246.jpg,10Where,1,3,16,,286105,400,0,116,bRMS
117,1,Chrome 97 (97.0.4692.71),TRUE,TRUE,Q,FALSE,Mac OS X 10_13_6,,2003.5,df42887_e_271.jpg,10Where,1,3,16,,288594,400,0,117,bRMS
118,1,Chrome 97 (97.0.4692.71),TRUE,TRUE,Q,FALSE,Mac OS X 10_13_6,,1030.9,f42887_e_036.jpg,10Where,0,3,16,,290114,400,0,118,bRMS
119,1,Chrome 97 (97.0.4692.71),TRUE,TRUE,P,FALSE,Mac OS X 10_13_6,,1338.6,df42887_e_211.jpg,10Where,0,3,16,,291940,400,0,119,bRMS
120,1,Chrome 97 (97.0.4692.71),TRUE,TRUE,P,FALSE,Mac OS X 10_13_6,,1245.8,df42887_e_081.jpg,10Where,0,3,16,,293664,400,0,120,bRMS
121,1,Chrome 97 (97.0.4692.71),TRUE,TRUE,Q,FALSE,Mac OS X 10_13_6,,1691.1,df42887_e_161.jpg,10Where,1,3,16,,295841,400,0,121,bRMS
122,1,Chrome 97 (97.0.4692.71),TRUE,TRUE,P,FALSE,Mac OS X 10_13_6,,1484.9,f42887_e_226.jpg,10Where,0,3,16,,297818,400,0,122,bRMS
123,1,Chrome 97 (97.0.4692.71),TRUE,TRUE,Q,FALSE,Mac OS X 10_13_6,,1626.9,df42887_e_181.jpg,10Where,1,3,16,,299935,400,0,123,bRMS
124,1,Chrome 97 (97.0.4692.71),TRUE,TRUE,P,FALSE,Mac OS X 10_13_6,,2038.4,f42887_e_266.jpg,10Where,0,3,16,,302461,400,0,124,bRMS
125,1,Chrome 97 (97.0.4692.71),TRUE,TRUE,Q,FALSE,Mac OS X 10_13_6,,1196.4,f42887_e_206.jpg,10Where,1,3,16,,304145,400,0,125,bRMS
126,,,,,,,,,95966,,,,,,,400516,,,126,instructions
127,1,Chrome 97 (97.0.4692.71),TRUE,TRUE,Q,FALSE,Mac OS X 10_13_6,,1796.1,f42887_e_022.jpg,5Where,1,4,16,,402402,400,0,127,bRMS
128,1,Chrome 97 (97.0.4692.71),TRUE,TRUE,Q,FALSE,Mac OS X 10_13_6,,1552.1,df42887_e_227.jpg,5Where,1,4,16,,404450,400,0,128,bRMS
129,1,Chrome 97 (97.0.4692.71),TRUE,TRUE,P,FALSE,Mac OS X 10_13_6,,2454.3,f42887_e_262.jpg,5Where,0,4,16,,407390,400,0,129,bRMS
130,1,Chrome 97 (97.0.4692.71),TRUE,TRUE,Q,FALSE,Mac OS X 10_13_6,,1656.5,f42887_e_082.jpg,5Where,1,4,16,,409532,400,0,130,bRMS
131,1,Chrome 97 (97.0.4692.71),TRUE,TRUE,P,FALSE,Mac OS X 10_13_6,,1000.8,f42887_e_202.jpg,5Where,0,4,16,,411022,400,0,131,bRMS
132,1,Chrome 97 (97.0.4692.71),TRUE,TRUE,P,FALSE,Mac OS X 10_13_6,,1853.4,df42887_e_007.jpg,5Where,0,4,16,,413360,400,0,132,bRMS
133,1,Chrome 97 (97.0.4692.71),TRUE,TRUE,P,FALSE,Mac OS X 10_13_6,,2467.4,f42887_e_062.jpg,5Where,0,4,16,,416316,400,0,133,bRMS
134,1,Chrome 97 (97.0.4692.71),TRUE,TRUE,Q,FALSE,Mac OS X 10_13_6,,1134.6,f42887_e_162.jpg,5Where,1,4,16,,417952,400,0,134,bRMS
135,1,Chrome 97 (97.0.4692.71),TRUE,TRUE,Q,FALSE,Mac OS X 10_13_6,,1609.9,df42887_e_057.jpg,5Where,1,4,16,,420050,400,0,135,bRMS
136,1,Chrome 97 (97.0.4692.71),TRUE,TRUE,Q,FALSE,Mac OS X 10_13_6,,1764.3,f42887_e_142.jpg,5Where,1,4,16,,422300,400,0,136,bRMS
137,1,Chrome 97 (97.0.4692.71),TRUE,TRUE,Q,FALSE,Mac OS X 10_13_6,,4594.5,df42887_e_277.jpg,5Where,1,4,16,,427383,400,0,137,bRMS
138,1,Chrome 97 (97.0.4692.71),TRUE,TRUE,Q,FALSE,Mac OS X 10_13_6,,1432.2,df42887_e_177.jpg,5Where,1,4,16,,429311,400,0,138,bRMS
139,1,Chrome 97 (97.0.4692.71),TRUE,TRUE,P,FALSE,Mac OS X 10_13_6,,1411,f42887_e_292.jpg,5Where,0,4,16,,431205,400,0,139,bRMS
140,1,Chrome 97 (97.0.4692.71),TRUE,TRUE,P,FALSE,Mac OS X 10_13_6,,1723.1,f42887_e_172.jpg,5Where,0,4,16,,433414,400,0,140,bRMS
141,1,Chrome 97 (97.0.4692.71),TRUE,TRUE,P,FALSE,Mac OS X 10_13_6,,1251,f42887_e_192.jpg,5Where,0,4,16,,435161,400,0,141,bRMS
142,1,Chrome 97 (97.0.4692.71),TRUE,TRUE,P,FALSE,Mac OS X 10_13_6,,2068.9,f42887_e_182.jpg,5Where,0,4,16,,437717,400,0,142,bRMS
143,1,Chrome 97 (97.0.4692.71),TRUE,TRUE,Q,FALSE,Mac OS X 10_13_6,,1605.3,f42887_e_052.jpg,5Where,1,4,16,,439809,400,0,143,bRMS
144,1,Chrome 97 (97.0.4692.71),TRUE,TRUE,Q,FALSE,Mac OS X 10_13_6,,1403.1,df42887_e_127.jpg,5Where,1,4,16,,441706,400,0,144,bRMS
145,1,Chrome 97 (97.0.4692.71),TRUE,TRUE,Q,FALSE,Mac OS X 10_13_6,,1865,f42887_e_112.jpg,5Where,1,4,16,,444061,400,0,145,bRMS
146,1,Chrome 97 (97.0.4692.71),TRUE,TRUE,Q,FALSE,Mac OS X 10_13_6,,1490.6,df42887_e_167.jpg,5Where,1,4,16,,446039,400,0,146,bRMS
147,1,Chrome 97 (97.0.4692.71),TRUE,TRUE,P,FALSE,Mac OS X 10_13_6,,1915.5,f42887_e_102.jpg,5Where,0,4,16,,448449,400,0,147,bRMS
148,1,Chrome 97 (97.0.4692.71),TRUE,TRUE,Q,FALSE,Mac OS X 10_13_6,,1642.6,f42887_e_122.jpg,5Where,1,4,16,,450577,400,0,148,bRMS
149,1,Chrome 97 (97.0.4692.71),TRUE,TRUE,Q,FALSE,Mac OS X 10_13_6,,1865.3,df42887_e_037.jpg,5Where,1,4,16,,452930,400,0,149,bRMS
150,1,Chrome 97 (97.0.4692.71),TRUE,TRUE,P,FALSE,Mac OS X 10_13_6,,1583,df42887_e_207.jpg,5Where,0,4,16,,455011,400,0,150,bRMS
151,1,Chrome 97 (97.0.4692.71),TRUE,TRUE,Q,FALSE,Mac OS X 10_13_6,,1838.2,f42887_e_272.jpg,5Where,1,4,16,,457338,400,0,151,bRMS
152,1,Chrome 97 (97.0.4692.71),TRUE,TRUE,Q,FALSE,Mac OS X 10_13_6,,1325.2,df42887_e_217.jpg,5Where,1,4,16,,459150,400,0,152,bRMS
153,1,Chrome 97 (97.0.4692.71),TRUE,TRUE,Q,FALSE,Mac OS X 10_13_6,,1891.3,f42887_e_222.jpg,5Where,1,4,16,,461538,400,0,153,bRMS
154,1,Chrome 97 (97.0.4692.71),TRUE,TRUE,Q,FALSE,Mac OS X 10_13_6,,1943.9,df42887_e_147.jpg,5Where,1,4,16,,463966,400,0,154,bRMS
155,1,Chrome 97 (97.0.4692.71),TRUE,TRUE,P,FALSE,Mac OS X 10_13_6,,7262.8,df42887_e_157.jpg,5Where,0,4,16,,471725,400,0,155,bRMS
156,1,Chrome 97 (97.0.4692.71),TRUE,TRUE,Q,FALSE,Mac OS X 10_13_6,,1704.7,df42887_e_117.jpg,5Where,1,4,16,,473916,400,0,156,bRMS
157,1,Chrome 97 (97.0.4692.71),TRUE,TRUE,Q,FALSE,Mac OS X 10_13_6,,5348.6,df42887_e_237.jpg,5Where,1,4,16,,479748,400,0,157,bRMS
158,1,Chrome 97 (97.0.4692.71),TRUE,TRUE,Q,FALSE,Mac OS X 10_13_6,,1419.9,df42887_e_247.jpg,5Where,1,4,16,,481665,400,0,158,bRMS
159,1,Chrome 97 (97.0.4692.71),TRUE,TRUE,Q,FALSE,Mac OS X 10_13_6,,1491,f42887_e_242.jpg,5Where,1,4,16,,483639,400,0,159,bRMS
160,1,Chrome 97 (97.0.4692.71),TRUE,TRUE,P,FALSE,Mac OS X 10_13_6,,1970,f42887_e_042.jpg,5Where,0,4,16,,486096,400,0,160,bRMS
161,1,Chrome 97 (97.0.4692.71),TRUE,TRUE,Q,FALSE,Mac OS X 10_13_6,,1244.5,df42887_e_047.jpg,5Where,1,4,16,,487837,400,0,161,bRMS
162,1,Chrome 97 (97.0.4692.71),TRUE,TRUE,P,FALSE,Mac OS X 10_13_6,,3046.8,df42887_e_267.jpg,5Where,0,4,16,,491374,400,0,162,bRMS
163,1,Chrome 97 (97.0.4692.71),TRUE,TRUE,Q,FALSE,Mac OS X 10_13_6,,1387.6,f42887_e_132.jpg,5Where,1,4,16,,493250,400,0,163,bRMS
164,1,Chrome 97 (97.0.4692.71),TRUE,TRUE,P,FALSE,Mac OS X 10_13_6,,1302.6,df42887_e_017.jpg,5Where,0,4,16,,495059,400,0,164,bRMS
165,1,Chrome 97 (97.0.4692.71),TRUE,TRUE,Q,FALSE,Mac OS X 10_13_6,,1151.8,f42887_e_072.jpg,5Where,1,4,16,,496703,400,0,165,bRMS
