trial_type,trial_index,time_elapsed,rt,stimulus,stimulus_block,stimulus_side,key_press,second_stimulus,two_side,time_post_trial,subject,is_fullscreen,trial_began,os,browser,screen_size,block,sub_block,tags1,tags2
pavlovia,0,2,,,,,,,,,,,,,,,,,,
instructions,1,996,994,,,,,,,,,,,,,,,,,
instructions,2,34558,33562,,,,,,,,,,,,,,,,,
bRMS,3,36650,2047.2,images/f42887_e_100 copy.png,training,0,75,,FALSE,400,1,FALSE,0,Windows 10,Chrome 105 (105.0.0.0),,63,63,,
bRMS,4,37849,747.3,images/f42887_e_100 copy.png,training,0,75,,FALSE,400,1,FALSE,0,Windows 10,Chrome 105 (105.0.0.0),,63,63,,
bRMS,5,38886,594.4,images/f42887_e_100 copy.png,training,1,68,,FALSE,400,1,FALSE,0,Windows 10,Chrome 105 (105.0.0.0),,63,63,,
bRMS,6,40102,764.3,images/f42887_e_100 copy.png,training,0,75,,FALSE,400,1,FALSE,0,Windows 10,Chrome 105 (105.0.0.0),,63,63,,
bRMS,7,41103,561.5,images/f42887_e_100 copy.png,training,1,68,,FALSE,400,1,FALSE,0,Windows 10,Chrome 105 (105.0.0.0),,63,63,,
bRMS,8,42086,529.1,images/f42887_e_100 copy.png,training,1,68,,FALSE,400,1,FALSE,0,Windows 10,Chrome 105 (105.0.0.0),,63,63,,
bRMS,9,43120,593.9,images/f42887_e_100 copy.png,training,0,75,,FALSE,400,1,FALSE,0,Windows 10,Chrome 105 (105.0.0.0),,63,63,,
bRMS,10,44187,618.5,images/f42887_e_100 copy.png,training,0,75,,FALSE,400,1,FALSE,0,Windows 10,Chrome 105 (105.0.0.0),,63,63,,
bRMS,11,45487,856.8,images/f42887_e_100 copy.png,training,0,75,,FALSE,400,1,FALSE,0,Windows 10,Chrome 105 (105.0.0.0),,63,63,,
bRMS,12,46531,598.1,images/f42887_e_100 copy.png,training,0,75,,FALSE,400,1,FALSE,0,Windows 10,Chrome 105 (105.0.0.0),,63,63,,
bRMS,13,47500,527.6,images/f42887_e_100 copy.png,training,1,68,,FALSE,400,1,FALSE,0,Windows 10,Chrome 105 (105.0.0.0),,63,63,,
bRMS,14,48396,448.9,images/f42887_e_100 copy.png,training,1,68,,FALSE,400,1,FALSE,0,Windows 10,Chrome 105 (105.0.0.0),,63,63,,
bRMS,15,49312,471.4,images/f42887_e_100 copy.png,training,1,68,,FALSE,400,1,FALSE,0,Windows 10,Chrome 105 (105.0.0.0),,63,63,,
bRMS,16,50448,691.1,images/f42887_e_100 copy.png,training,0,75,,FALSE,400,1,FALSE,0,Windows 10,Chrome 105 (105.0.0.0),,63,63,,
bRMS,17,51525,636.3,images/f42887_e_100 copy.png,training,0,75,,FALSE,400,1,FALSE,0,Windows 10,Chrome 105 (105.0.0.0),,63,63,,
bRMS,18,52632,665.4,images/f42887_e_100 copy.png,training,0,75,,FALSE,400,1,FALSE,0,Windows 10,Chrome 105 (105.0.0.0),,63,63,,
bRMS,19,53576,503.5,images/f42887_e_100 copy.png,training,1,68,,FALSE,400,1,FALSE,0,Windows 10,Chrome 105 (105.0.0.0),,63,63,,
bRMS,20,54538,520.2,images/f42887_e_100 copy.png,training,1,68,,FALSE,400,1,FALSE,0,Windows 10,Chrome 105 (105.0.0.0),,63,63,,
bRMS,21,55468,479.1,images/f42887_e_100 copy.png,training,1,68,,FALSE,400,1,FALSE,0,Windows 10,Chrome 105 (105.0.0.0),,63,63,,
bRMS,22,56405,488.8,images/f42887_e_100 copy.png,training,1,68,,FALSE,400,1,FALSE,0,Windows 10,Chrome 105 (105.0.0.0),,63,63,,
bRMS,23,57525,680.6,images/f42887_e_100 copy.png,training,0,75,,FALSE,400,1,FALSE,0,Windows 10,Chrome 105 (105.0.0.0),,63,63,,
bRMS,24,58399,433.6,images/f42887_e_100 copy.png,training,1,68,,FALSE,400,1,FALSE,0,Windows 10,Chrome 105 (105.0.0.0),,63,63,,
bRMS,25,59509,659.2,images/f42887_e_100 copy.png,training,0,75,,FALSE,400,1,FALSE,0,Windows 10,Chrome 105 (105.0.0.0),,63,63,,
bRMS,26,60507,556.6,images/f42887_e_100 copy.png,training,0,75,,FALSE,400,1,FALSE,0,Windows 10,Chrome 105 (105.0.0.0),,63,63,,
bRMS,27,61422,471.1,images/f42887_e_100 copy.png,training,1,68,,FALSE,400,1,FALSE,0,Windows 10,Chrome 105 (105.0.0.0),,63,63,,
bRMS,28,62268,405.9,images/f42887_e_100 copy.png,training,0,75,,FALSE,400,1,FALSE,0,Windows 10,Chrome 105 (105.0.0.0),,63,63,,
bRMS,29,63290,581.4,images/f42887_e_100 copy.png,training,0,75,,FALSE,400,1,FALSE,0,Windows 10,Chrome 105 (105.0.0.0),,63,63,,
bRMS,30,64140,400.1,images/f42887_e_100 copy.png,training,1,68,,FALSE,400,1,FALSE,0,Windows 10,Chrome 105 (105.0.0.0),,63,63,,
bRMS,31,64879,297.8,images/f42887_e_100 copy.png,training,1,75,,FALSE,400,1,FALSE,0,Windows 10,Chrome 105 (105.0.0.0),,63,63,,
bRMS,32,65913,592.2,images/f42887_e_100 copy.png,training,0,75,,FALSE,400,1,FALSE,0,Windows 10,Chrome 105 (105.0.0.0),,63,63,,
instructions,33,70896,4572,,,,,,,,,,,,,,,,,
bRMS,34,73720,2780.3,images/f42887_e_064 copy.png,A-B,1,75,images/f42887_e_180 copy.png,TRUE,400,1,FALSE,0,Windows 10,Chrome 105 (105.0.0.0),,63,63,['A'],['B']
bRMS,35,74873,705.4,images/f42887_e_252 copy.png,A-B,0,75,images/f42887_e_056 copy.png,TRUE,400,1,FALSE,0,Windows 10,Chrome 105 (105.0.0.0),,63,63,['A'],['B']
bRMS,36,76213,888.8,images/f42887_e_127 copy.png,A-B,0,68,images/f42887_e_295 copy.png,TRUE,400,1,FALSE,0,Windows 10,Chrome 105 (105.0.0.0),,63,63,['A'],['B']
bRMS,37,77238,581.4,images/f42887_e_127 copy.png,A-B,1,68,images/f42887_e_191 copy.png,TRUE,400,1,FALSE,0,Windows 10,Chrome 105 (105.0.0.0),,63,63,['A'],['B']
bRMS,38,78231,542.3,images/f42887_e_121 copy.png,A-B,1,68,images/f42887_e_235 copy.png,TRUE,400,1,FALSE,0,Windows 10,Chrome 105 (105.0.0.0),,63,63,['A'],['B']
bRMS,39,79260,579.2,images/f42887_e_025 copy.png,A-B,0,68,images/f42887_e_166 copy.png,TRUE,400,1,FALSE,0,Windows 10,Chrome 105 (105.0.0.0),,63,63,['A'],['B']
bRMS,40,81402,1702.6,images/f42887_e_058 copy.png,A-B,0,75,images/f42887_e_161 copy.png,TRUE,400,1,FALSE,0,Windows 10,Chrome 105 (105.0.0.0),,63,63,['A'],['B']
bRMS,41,82413,571,images/f42887_e_298 copy.png,A-B,1,75,images/f42887_e_065 copy.png,TRUE,400,1,FALSE,0,Windows 10,Chrome 105 (105.0.0.0),,63,63,['A'],['B']
bRMS,42,83470,614.9,images/f42887_e_121 copy.png,A-B,1,68,images/f42887_e_200 copy.png,TRUE,400,1,FALSE,0,Windows 10,Chrome 105 (105.0.0.0),,63,63,['A'],['B']
bRMS,43,84521,601.7,images/f42887_e_005 copy.png,A-B,0,75,images/f42887_e_289 copy.png,TRUE,400,1,FALSE,0,Windows 10,Chrome 105 (105.0.0.0),,63,63,['A'],['B']
bRMS,44,85521,546.7,images/f42887_e_025 copy.png,A-B,0,68,images/f42887_e_080 copy.png,TRUE,400,1,FALSE,0,Windows 10,Chrome 105 (105.0.0.0),,63,63,['A'],['B']
bRMS,45,86740,776,images/f42887_e_252 copy.png,A-B,0,68,images/f42887_e_231 copy.png,TRUE,400,1,FALSE,0,Windows 10,Chrome 105 (105.0.0.0),,63,63,['A'],['B']
bRMS,46,87854,666.5,images/f42887_e_298 copy.png,A-B,1,68,images/f42887_e_016 copy.png,TRUE,400,1,FALSE,0,Windows 10,Chrome 105 (105.0.0.0),,63,63,['A'],['B']
bRMS,47,89830,1531.1,images/f42887_e_058 copy.png,A-B,0,68,images/f42887_e_120 copy.png,TRUE,400,1,FALSE,0,Windows 10,Chrome 105 (105.0.0.0),,63,63,['A'],['B']
bRMS,48,92558,2283,images/f42887_e_156 copy.png,A-B,1,68,images/f42887_e_287 copy.png,TRUE,400,1,FALSE,0,Windows 10,Chrome 105 (105.0.0.0),,63,63,['A'],['B']
bRMS,49,94107,1105.3,images/f42887_e_156 copy.png,A-B,0,68,images/f42887_e_054 copy.png,TRUE,400,1,FALSE,0,Windows 10,Chrome 105 (105.0.0.0),,63,63,['A'],['B']
bRMS,50,95135,576.9,images/f42887_e_064 copy.png,A-B,1,68,images/f42887_e_004 copy.png,TRUE,400,1,FALSE,0,Windows 10,Chrome 105 (105.0.0.0),,63,63,['A'],['B']
bRMS,51,96671,1093.2,images/f42887_e_152 copy.png,D-E,0,68,images/f42887_e_145 copy.png,TRUE,400,1,FALSE,0,Windows 10,Chrome 105 (105.0.0.0),,63,63,['D'],['E']
bRMS,52,98100,985.6,images/f42887_e_157 copy.png,D-E,1,68,images/f42887_e_040 copy.png,TRUE,400,1,FALSE,0,Windows 10,Chrome 105 (105.0.0.0),,63,63,['D'],['E']
bRMS,53,101865,3323.6,images/f42887_e_241 copy.png,D-E,0,75,images/f42887_e_215 copy.png,TRUE,400,1,FALSE,0,Windows 10,Chrome 105 (105.0.0.0),,63,63,['D'],['E']
bRMS,54,103567,1259,images/f42887_e_237 copy.png,D-E,0,68,images/f42887_e_146 copy.png,TRUE,400,1,FALSE,0,Windows 10,Chrome 105 (105.0.0.0),,63,63,['D'],['E']
bRMS,55,104739,730.6,images/f42887_e_096 copy.png,D-E,1,68,images/f42887_e_146 copy.png,TRUE,400,1,FALSE,0,Windows 10,Chrome 105 (105.0.0.0),,63,63,['D'],['E']
bRMS,56,105823,639,images/f42887_e_165 copy.png,D-E,1,68,images/f42887_e_209 copy.png,TRUE,400,1,FALSE,0,Windows 10,Chrome 105 (105.0.0.0),,63,63,['D'],['E']
bRMS,57,107073,800.8,images/f42887_e_178 copy.png,D-E,0,68,images/f42887_e_209 copy.png,TRUE,400,1,FALSE,0,Windows 10,Chrome 105 (105.0.0.0),,63,63,['D'],['E']
bRMS,58,108886,1371.8,images/f42887_e_103 copy.png,D-E,0,68,images/f42887_e_051 copy.png,TRUE,400,1,FALSE,0,Windows 10,Chrome 105 (105.0.0.0),,63,63,['D'],['E']
bRMS,59,110111,783.2,images/f42887_e_278 copy.png,D-E,1,68,images/f42887_e_099 copy.png,TRUE,400,1,FALSE,0,Windows 10,Chrome 105 (105.0.0.0),,63,63,['D'],['E']
bRMS,60,111553,991.3,images/f42887_e_296 copy.png,D-E,0,75,images/f42887_e_085 copy.png,TRUE,400,1,FALSE,0,Windows 10,Chrome 105 (105.0.0.0),,63,63,['D'],['E']
bRMS,61,112814,820.4,images/f42887_e_038 copy.png,D-E,0,68,images/f42887_e_044 copy.png,TRUE,400,1,FALSE,0,Windows 10,Chrome 105 (105.0.0.0),,63,63,['D'],['E']
bRMS,62,115435,2180.1,images/f42887_e_218 copy.png,D-E,0,68,images/f42887_e_000 copy.png,TRUE,400,1,FALSE,0,Windows 10,Chrome 105 (105.0.0.0),,63,63,['D'],['E']
bRMS,63,117650,1766.4,images/f42887_e_189 copy.png,D-E,1,75,images/f42887_e_290 copy.png,TRUE,400,1,FALSE,0,Windows 10,Chrome 105 (105.0.0.0),,63,63,['D'],['E']
bRMS,64,119941,1848.4,images/f42887_e_043 copy.png,D-E,0,75,images/f42887_e_213 copy.png,TRUE,400,1,FALSE,0,Windows 10,Chrome 105 (105.0.0.0),,63,63,['D'],['E']
bRMS,65,120987,605,images/f42887_e_122 copy.png,D-E,1,68,images/f42887_e_051 copy.png,TRUE,400,1,FALSE,0,Windows 10,Chrome 105 (105.0.0.0),,63,63,['D'],['E']
bRMS,66,122146,708.9,images/f42887_e_293 copy.png,D-E,1,68,images/f42887_e_169 copy.png,TRUE,400,1,FALSE,0,Windows 10,Chrome 105 (105.0.0.0),,63,63,['D'],['E']
bRMS,67,123170,573.7,images/f42887_e_028 copy.png,D-E,1,68,images/f42887_e_167 copy.png,TRUE,400,1,FALSE,0,Windows 10,Chrome 105 (105.0.0.0),,63,63,['D'],['E']
bRMS,68,124169,557.5,images/f42887_e_156 copy.png,A-C,1,68,images/f42887_e_265 copy.png,TRUE,400,1,FALSE,0,Windows 10,Chrome 105 (105.0.0.0),,63,63,['A'],['C']
bRMS,69,125360,744.1,images/f42887_e_058 copy.png,A-C,1,68,images/f42887_e_134 copy.png,TRUE,400,1,FALSE,0,Windows 10,Chrome 105 (105.0.0.0),,63,63,['A'],['C']
bRMS,70,127453,1643.8,images/f42887_e_298 copy.png,A-C,0,68,images/f42887_e_176 copy.png,TRUE,400,1,FALSE,0,Windows 10,Chrome 105 (105.0.0.0),,63,63,['A'],['C']
bRMS,71,129112,1216.5,images/f42887_e_127 copy.png,A-C,0,68,images/f42887_e_201 copy.png,TRUE,400,1,FALSE,0,Windows 10,Chrome 105 (105.0.0.0),,63,63,['A'],['C']
bRMS,72,130231,668.2,images/f42887_e_058 copy.png,A-C,1,75,images/f42887_e_291 copy.png,TRUE,400,1,FALSE,0,Windows 10,Chrome 105 (105.0.0.0),,63,63,['A'],['C']
bRMS,73,131883,1206.4,images/f42887_e_025 copy.png,A-C,0,75,images/f42887_e_238 copy.png,TRUE,400,1,FALSE,0,Windows 10,Chrome 105 (105.0.0.0),,63,63,['A'],['C']
bRMS,74,133225,894.6,images/f42887_e_121 copy.png,A-C,1,75,images/f42887_e_212 copy.png,TRUE,400,1,FALSE,0,Windows 10,Chrome 105 (105.0.0.0),,63,63,['A'],['C']
bRMS,75,134933,1265,images/f42887_e_121 copy.png,A-C,0,75,images/f42887_e_266 copy.png,TRUE,400,1,FALSE,0,Windows 10,Chrome 105 (105.0.0.0),,63,63,['A'],['C']
bRMS,76,136765,1389.1,images/f42887_e_005 copy.png,A-C,1,68,images/f42887_e_024 copy.png,TRUE,400,1,FALSE,0,Windows 10,Chrome 105 (105.0.0.0),,63,63,['A'],['C']
bRMS,77,138090,884.5,images/f42887_e_064 copy.png,A-C,0,68,images/f42887_e_240 copy.png,TRUE,400,1,FALSE,0,Windows 10,Chrome 105 (105.0.0.0),,63,63,['A'],['C']
bRMS,78,139741,1201.4,images/f42887_e_064 copy.png,A-C,0,68,images/f42887_e_179 copy.png,TRUE,400,1,FALSE,0,Windows 10,Chrome 105 (105.0.0.0),,63,63,['A'],['C']
bRMS,79,144636,4448.3,images/f42887_e_127 copy.png,A-C,0,68,images/f42887_e_197 copy.png,TRUE,400,1,FALSE,0,Windows 10,Chrome 105 (105.0.0.0),,63,63,['A'],['C']
bRMS,80,147027,1948.5,images/f42887_e_298 copy.png,A-C,1,75,images/f42887_e_273 copy.png,TRUE,400,1,FALSE,0,Windows 10,Chrome 105 (105.0.0.0),,63,63,['A'],['C']
bRMS,81,148677,1199,images/f42887_e_156 copy.png,A-C,1,75,images/f42887_e_068 copy.png,TRUE,400,1,FALSE,0,Windows 10,Chrome 105 (105.0.0.0),,63,63,['A'],['C']
bRMS,82,150130,1005,images/f42887_e_252 copy.png,A-C,1,68,images/f42887_e_067 copy.png,TRUE,400,1,FALSE,0,Windows 10,Chrome 105 (105.0.0.0),,63,63,['A'],['C']
bRMS,83,152965,2395,images/f42887_e_252 copy.png,A-C,0,75,images/f42887_e_021 copy.png,TRUE,400,1,FALSE,0,Windows 10,Chrome 105 (105.0.0.0),,63,63,['A'],['C']
bRMS,84,154460,1048.7,images/f42887_e_025 copy.png,A-C,1,75,images/f42887_e_210 copy.png,TRUE,400,1,FALSE,0,Windows 10,Chrome 105 (105.0.0.0),,63,63,['A'],['C']
bRMS,85,155787,886.9,images/f42887_e_067 copy.png,C-E,0,68,images/f42887_e_051 copy.png,TRUE,400,1,FALSE,0,Windows 10,Chrome 105 (105.0.0.0),,63,63,['C'],['E']
bRMS,86,156865,628.2,images/f42887_e_210 copy.png,C-E,0,68,images/f42887_e_209 copy.png,TRUE,400,1,FALSE,0,Windows 10,Chrome 105 (105.0.0.0),,63,63,['C'],['E']
bRMS,87,157955,643,images/f42887_e_238 copy.png,C-E,1,68,images/f42887_e_040 copy.png,TRUE,400,1,FALSE,0,Windows 10,Chrome 105 (105.0.0.0),,63,63,['C'],['E']
bRMS,88,159007,607,images/f42887_e_212 copy.png,C-E,1,68,images/f42887_e_213 copy.png,TRUE,400,1,FALSE,0,Windows 10,Chrome 105 (105.0.0.0),,63,63,['C'],['E']
bRMS,89,161486,2039,images/f42887_e_201 copy.png,C-E,1,68,images/f42887_e_085 copy.png,TRUE,400,1,FALSE,0,Windows 10,Chrome 105 (105.0.0.0),,63,63,['C'],['E']
bRMS,90,162852,913.9,images/f42887_e_265 copy.png,C-E,1,68,images/f42887_e_000 copy.png,TRUE,400,1,FALSE,0,Windows 10,Chrome 105 (105.0.0.0),,63,63,['C'],['E']
bRMS,91,164882,1589.7,images/f42887_e_291 copy.png,C-E,0,75,images/f42887_e_290 copy.png,TRUE,400,1,FALSE,0,Windows 10,Chrome 105 (105.0.0.0),,63,63,['C'],['E']
bRMS,92,168902,3575.8,images/f42887_e_024 copy.png,C-E,1,75,images/f42887_e_209 copy.png,TRUE,400,1,FALSE,0,Windows 10,Chrome 105 (105.0.0.0),,63,63,['C'],['E']
bRMS,93,172016,2668.4,images/f42887_e_021 copy.png,C-E,0,75,images/f42887_e_215 copy.png,TRUE,400,1,FALSE,0,Windows 10,Chrome 105 (105.0.0.0),,63,63,['C'],['E']
bRMS,94,173482,1014.9,images/f42887_e_068 copy.png,C-E,1,68,images/f42887_e_146 copy.png,TRUE,400,1,FALSE,0,Windows 10,Chrome 105 (105.0.0.0),,63,63,['C'],['E']
bRMS,95,175150,1228.4,images/f42887_e_176 copy.png,C-E,0,75,images/f42887_e_099 copy.png,TRUE,400,1,FALSE,0,Windows 10,Chrome 105 (105.0.0.0),,63,63,['C'],['E']
bRMS,96,176282,685.2,images/f42887_e_273 copy.png,C-E,0,68,images/f42887_e_051 copy.png,TRUE,400,1,FALSE,0,Windows 10,Chrome 105 (105.0.0.0),,63,63,['C'],['E']
bRMS,97,177357,627.5,images/f42887_e_240 copy.png,C-E,1,68,images/f42887_e_146 copy.png,TRUE,400,1,FALSE,0,Windows 10,Chrome 105 (105.0.0.0),,63,63,['C'],['E']
bRMS,98,178462,665.8,images/f42887_e_179 copy.png,C-E,1,68,images/f42887_e_044 copy.png,TRUE,400,1,FALSE,0,Windows 10,Chrome 105 (105.0.0.0),,63,63,['C'],['E']
bRMS,99,179778,876.4,images/f42887_e_266 copy.png,C-E,0,68,images/f42887_e_167 copy.png,TRUE,400,1,FALSE,0,Windows 10,Chrome 105 (105.0.0.0),,63,63,['C'],['E']
bRMS,100,183521,3288.2,images/f42887_e_134 copy.png,C-E,0,75,images/f42887_e_145 copy.png,TRUE,400,1,FALSE,0,Windows 10,Chrome 105 (105.0.0.0),,63,63,['C'],['E']
bRMS,101,186014,2041.2,images/f42887_e_197 copy.png,C-E,0,75,images/f42887_e_169 copy.png,TRUE,400,1,FALSE,0,Windows 10,Chrome 105 (105.0.0.0),,63,63,['C'],['E']
bRMS,102,187544,1087.4,images/f42887_e_289 copy.png,B-E,0,75,images/f42887_e_145 copy.png,TRUE,400,1,FALSE,0,Windows 10,Chrome 105 (105.0.0.0),,63,63,['B'],['E']
bRMS,103,188905,916.8,images/f42887_e_235 copy.png,B-E,0,75,images/f42887_e_044 copy.png,TRUE,400,1,FALSE,0,Windows 10,Chrome 105 (105.0.0.0),,63,63,['B'],['E']
bRMS,104,190159,813.7,images/f42887_e_065 copy.png,B-E,1,68,images/f42887_e_290 copy.png,TRUE,400,1,FALSE,0,Windows 10,Chrome 105 (105.0.0.0),,63,63,['B'],['E']
bRMS,105,191153,541,images/f42887_e_180 copy.png,B-E,1,68,images/f42887_e_040 copy.png,TRUE,400,1,FALSE,0,Windows 10,Chrome 105 (105.0.0.0),,63,63,['B'],['E']
bRMS,106,192875,1272.8,images/f42887_e_200 copy.png,B-E,0,75,images/f42887_e_051 copy.png,TRUE,400,1,FALSE,0,Windows 10,Chrome 105 (105.0.0.0),,63,63,['B'],['E']
bRMS,107,194309,993.5,images/f42887_e_080 copy.png,B-E,1,75,images/f42887_e_209 copy.png,TRUE,400,1,FALSE,0,Windows 10,Chrome 105 (105.0.0.0),,63,63,['B'],['E']
bRMS,108,197013,2256.4,images/f42887_e_161 copy.png,B-E,1,75,images/f42887_e_167 copy.png,TRUE,400,1,FALSE,0,Windows 10,Chrome 105 (105.0.0.0),,63,63,['B'],['E']
bRMS,109,200221,2758.5,images/f42887_e_004 copy.png,B-E,0,75,images/f42887_e_000 copy.png,TRUE,400,1,FALSE,0,Windows 10,Chrome 105 (105.0.0.0),,63,63,['B'],['E']
bRMS,110,201441,775.5,images/f42887_e_295 copy.png,B-E,1,68,images/f42887_e_213 copy.png,TRUE,400,1,FALSE,0,Windows 10,Chrome 105 (105.0.0.0),,63,63,['B'],['E']
bRMS,111,203061,1178.2,images/f42887_e_016 copy.png,B-E,0,75,images/f42887_e_215 copy.png,TRUE,400,1,FALSE,0,Windows 10,Chrome 105 (105.0.0.0),,63,63,['B'],['E']
bRMS,112,204248,745.6,images/f42887_e_287 copy.png,B-E,0,75,images/f42887_e_099 copy.png,TRUE,400,1,FALSE,0,Windows 10,Chrome 105 (105.0.0.0),,63,63,['B'],['E']
bRMS,113,205452,760.9,images/f42887_e_191 copy.png,B-E,1,68,images/f42887_e_085 copy.png,TRUE,400,1,FALSE,0,Windows 10,Chrome 105 (105.0.0.0),,63,63,['B'],['E']
bRMS,114,208663,2764.8,images/f42887_e_054 copy.png,B-E,1,75,images/f42887_e_146 copy.png,TRUE,400,1,FALSE,0,Windows 10,Chrome 105 (105.0.0.0),,63,63,['B'],['E']
bRMS,115,210051,946.4,images/f42887_e_166 copy.png,B-E,0,75,images/f42887_e_169 copy.png,TRUE,400,1,FALSE,0,Windows 10,Chrome 105 (105.0.0.0),,63,63,['B'],['E']
bRMS,116,211401,909.2,images/f42887_e_231 copy.png,B-E,1,75,images/f42887_e_146 copy.png,TRUE,400,1,FALSE,0,Windows 10,Chrome 105 (105.0.0.0),,63,63,['B'],['E']
bRMS,117,212744,898.2,images/f42887_e_056 copy.png,B-E,0,75,images/f42887_e_051 copy.png,TRUE,400,1,FALSE,0,Windows 10,Chrome 105 (105.0.0.0),,63,63,['B'],['E']
bRMS,118,213743,556.3,images/f42887_e_120 copy.png,B-E,1,68,images/f42887_e_209 copy.png,TRUE,400,1,FALSE,0,Windows 10,Chrome 105 (105.0.0.0),,63,63,['B'],['E']
bRMS,119,215070,885.3,images/f42887_e_127 copy.png,A-E,0,75,images/f42887_e_146 copy.png,TRUE,400,1,FALSE,0,Windows 10,Chrome 105 (105.0.0.0),,63,63,['A'],['E']
bRMS,120,216071,550.6,images/f42887_e_064 copy.png,A-E,0,68,images/f42887_e_290 copy.png,TRUE,400,1,FALSE,0,Windows 10,Chrome 105 (105.0.0.0),,63,63,['A'],['E']
bRMS,121,217225,704.4,images/f42887_e_025 copy.png,A-E,1,75,images/f42887_e_209 copy.png,TRUE,400,1,FALSE,0,Windows 10,Chrome 105 (105.0.0.0),,63,63,['A'],['E']
bRMS,122,218263,594.8,images/f42887_e_121 copy.png,A-E,1,68,images/f42887_e_167 copy.png,TRUE,400,1,FALSE,0,Windows 10,Chrome 105 (105.0.0.0),,63,63,['A'],['E']
bRMS,123,219159,455.6,images/f42887_e_252 copy.png,A-E,1,68,images/f42887_e_000 copy.png,TRUE,400,1,FALSE,0,Windows 10,Chrome 105 (105.0.0.0),,63,63,['A'],['E']
bRMS,124,220135,525.5,images/f42887_e_005 copy.png,A-E,0,68,images/f42887_e_146 copy.png,TRUE,400,1,FALSE,0,Windows 10,Chrome 105 (105.0.0.0),,63,63,['A'],['E']
bRMS,125,221412,837.3,images/f42887_e_156 copy.png,A-E,1,68,images/f42887_e_215 copy.png,TRUE,400,1,FALSE,0,Windows 10,Chrome 105 (105.0.0.0),,63,63,['A'],['E']
bRMS,126,222593,731.6,images/f42887_e_298 copy.png,A-E,1,68,images/f42887_e_051 copy.png,TRUE,400,1,FALSE,0,Windows 10,Chrome 105 (105.0.0.0),,63,63,['A'],['E']
bRMS,127,224044,1009.9,images/f42887_e_127 copy.png,A-E,1,68,images/f42887_e_051 copy.png,TRUE,400,1,FALSE,0,Windows 10,Chrome 105 (105.0.0.0),,63,63,['A'],['E']
bRMS,128,224961,477.2,images/f42887_e_252 copy.png,A-E,0,68,images/f42887_e_209 copy.png,TRUE,400,1,FALSE,0,Windows 10,Chrome 105 (105.0.0.0),,63,63,['A'],['E']
bRMS,129,225822,418.1,images/f42887_e_025 copy.png,A-E,1,68,images/f42887_e_099 copy.png,TRUE,400,1,FALSE,0,Windows 10,Chrome 105 (105.0.0.0),,63,63,['A'],['E']
bRMS,130,226831,566,images/f42887_e_064 copy.png,A-E,0,68,images/f42887_e_213 copy.png,TRUE,400,1,FALSE,0,Windows 10,Chrome 105 (105.0.0.0),,63,63,['A'],['E']
bRMS,131,228160,886.5,images/f42887_e_156 copy.png,A-E,0,68,images/f42887_e_040 copy.png,TRUE,400,1,FALSE,0,Windows 10,Chrome 105 (105.0.0.0),,63,63,['A'],['E']
bRMS,132,229117,505.2,images/f42887_e_058 copy.png,A-E,0,75,images/f42887_e_145 copy.png,TRUE,400,1,FALSE,0,Windows 10,Chrome 105 (105.0.0.0),,63,63,['A'],['E']
bRMS,133,230068,500.9,images/f42887_e_298 copy.png,A-E,0,75,images/f42887_e_169 copy.png,TRUE,400,1,FALSE,0,Windows 10,Chrome 105 (105.0.0.0),,63,63,['A'],['E']
bRMS,134,231030,512.3,images/f42887_e_121 copy.png,A-E,0,75,images/f42887_e_044 copy.png,TRUE,400,1,FALSE,0,Windows 10,Chrome 105 (105.0.0.0),,63,63,['A'],['E']
bRMS,135,231980,507.9,images/f42887_e_058 copy.png,A-E,0,75,images/f42887_e_085 copy.png,TRUE,400,1,FALSE,0,Windows 10,Chrome 105 (105.0.0.0),,63,63,['A'],['E']
bRMS,136,232899,478.3,images/f42887_e_064 copy.png,A-D,1,75,images/f42887_e_178 copy.png,TRUE,400,1,FALSE,0,Windows 10,Chrome 105 (105.0.0.0),,63,63,['A'],['D']
bRMS,137,233997,656.9,images/f42887_e_121 copy.png,A-D,0,75,images/f42887_e_218 copy.png,TRUE,400,1,FALSE,0,Windows 10,Chrome 105 (105.0.0.0),,63,63,['A'],['D']
bRMS,138,235109,666.2,images/f42887_e_298 copy.png,A-D,1,75,images/f42887_e_096 copy.png,TRUE,400,1,FALSE,0,Windows 10,Chrome 105 (105.0.0.0),,63,63,['A'],['D']
bRMS,139,236062,511,images/f42887_e_127 copy.png,A-D,1,75,images/f42887_e_028 copy.png,TRUE,400,1,FALSE,0,Windows 10,Chrome 105 (105.0.0.0),,63,63,['A'],['D']
bRMS,140,236946,432.9,images/f42887_e_252 copy.png,A-D,1,75,images/f42887_e_043 copy.png,TRUE,400,1,FALSE,0,Windows 10,Chrome 105 (105.0.0.0),,63,63,['A'],['D']
bRMS,141,237867,470.8,images/f42887_e_005 copy.png,A-D,0,68,images/f42887_e_296 copy.png,TRUE,400,1,FALSE,0,Windows 10,Chrome 105 (105.0.0.0),,63,63,['A'],['D']
bRMS,142,238752,444.4,images/f42887_e_298 copy.png,A-D,1,68,images/f42887_e_293 copy.png,TRUE,400,1,FALSE,0,Windows 10,Chrome 105 (105.0.0.0),,63,63,['A'],['D']
bRMS,143,239590,396,images/f42887_e_025 copy.png,A-D,1,68,images/f42887_e_038 copy.png,TRUE,400,1,FALSE,0,Windows 10,Chrome 105 (105.0.0.0),,63,63,['A'],['D']
bRMS,144,240729,689.5,images/f42887_e_156 copy.png,A-D,1,68,images/f42887_e_157 copy.png,TRUE,400,1,FALSE,0,Windows 10,Chrome 105 (105.0.0.0),,63,63,['A'],['D']
bRMS,145,241555,373.4,images/f42887_e_058 copy.png,A-D,0,68,images/f42887_e_152 copy.png,TRUE,400,1,FALSE,0,Windows 10,Chrome 105 (105.0.0.0),,63,63,['A'],['D']
bRMS,146,242380,375.6,images/f42887_e_064 copy.png,A-D,0,68,images/f42887_e_241 copy.png,TRUE,400,1,FALSE,0,Windows 10,Chrome 105 (105.0.0.0),,63,63,['A'],['D']
bRMS,147,243542,721.4,images/f42887_e_127 copy.png,A-D,1,68,images/f42887_e_278 copy.png,TRUE,400,1,FALSE,0,Windows 10,Chrome 105 (105.0.0.0),,63,63,['A'],['D']
bRMS,148,244633,649.8,images/f42887_e_156 copy.png,A-D,1,68,images/f42887_e_165 copy.png,TRUE,400,1,FALSE,0,Windows 10,Chrome 105 (105.0.0.0),,63,63,['A'],['D']
bRMS,149,245522,441.2,images/f42887_e_252 copy.png,A-D,0,68,images/f42887_e_122 copy.png,TRUE,400,1,FALSE,0,Windows 10,Chrome 105 (105.0.0.0),,63,63,['A'],['D']
bRMS,150,246436,471.7,images/f42887_e_025 copy.png,A-D,0,68,images/f42887_e_189 copy.png,TRUE,400,1,FALSE,0,Windows 10,Chrome 105 (105.0.0.0),,63,63,['A'],['D']
bRMS,151,247331,453,images/f42887_e_121 copy.png,A-D,1,68,images/f42887_e_237 copy.png,TRUE,400,1,FALSE,0,Windows 10,Chrome 105 (105.0.0.0),,63,63,['A'],['D']
bRMS,152,248199,426.2,images/f42887_e_058 copy.png,A-D,1,68,images/f42887_e_103 copy.png,TRUE,400,1,FALSE,0,Windows 10,Chrome 105 (105.0.0.0),,63,63,['A'],['D']
bRMS,153,249107,459.6,images/f42887_e_025 copy.png,A-E,0,68,images/f42887_e_209 copy.png,TRUE,400,1,FALSE,0,Windows 10,Chrome 105 (105.0.0.0),,63,63,['A'],['E']
bRMS,154,249869,319.2,images/f42887_e_064 copy.png,A-E,0,68,images/f42887_e_215 copy.png,TRUE,400,1,FALSE,0,Windows 10,Chrome 105 (105.0.0.0),,63,63,['A'],['E']
bRMS,155,250575,261.8,images/f42887_e_058 copy.png,A-E,0,68,images/f42887_e_167 copy.png,TRUE,400,1,FALSE,0,Windows 10,Chrome 105 (105.0.0.0),,63,63,['A'],['E']
bRMS,156,251337,321.5,images/f42887_e_156 copy.png,A-E,1,68,images/f42887_e_145 copy.png,TRUE,400,1,FALSE,0,Windows 10,Chrome 105 (105.0.0.0),,63,63,['A'],['E']
bRMS,157,252085,304.6,images/f42887_e_298 copy.png,A-E,1,68,images/f42887_e_169 copy.png,TRUE,400,1,FALSE,0,Windows 10,Chrome 105 (105.0.0.0),,63,63,['A'],['E']
bRMS,158,253395,862,images/f42887_e_252 copy.png,A-E,0,68,images/f42887_e_040 copy.png,TRUE,400,1,FALSE,0,Windows 10,Chrome 105 (105.0.0.0),,63,63,['A'],['E']
bRMS,159,254282,446.5,images/f42887_e_064 copy.png,A-E,1,68,images/f42887_e_209 copy.png,TRUE,400,1,FALSE,0,Windows 10,Chrome 105 (105.0.0.0),,63,63,['A'],['E']
bRMS,160,255154,428.3,images/f42887_e_127 copy.png,A-E,0,68,images/f42887_e_213 copy.png,TRUE,400,1,FALSE,0,Windows 10,Chrome 105 (105.0.0.0),,63,63,['A'],['E']
bRMS,161,256135,539.4,images/f42887_e_156 copy.png,A-E,1,75,images/f42887_e_099 copy.png,TRUE,400,1,FALSE,0,Windows 10,Chrome 105 (105.0.0.0),,63,63,['A'],['E']
bRMS,162,257114,534,images/f42887_e_005 copy.png,A-E,1,68,images/f42887_e_051 copy.png,TRUE,400,1,FALSE,0,Windows 10,Chrome 105 (105.0.0.0),,63,63,['A'],['E']
bRMS,163,258106,549.9,images/f42887_e_127 copy.png,A-E,1,75,images/f42887_e_146 copy.png,TRUE,400,1,FALSE,0,Windows 10,Chrome 105 (105.0.0.0),,63,63,['A'],['E']
bRMS,164,258886,337.3,images/f42887_e_121 copy.png,A-E,1,68,images/f42887_e_000 copy.png,TRUE,400,1,FALSE,0,Windows 10,Chrome 105 (105.0.0.0),,63,63,['A'],['E']
bRMS,165,259937,602.8,images/f42887_e_252 copy.png,A-E,1,68,images/f42887_e_051 copy.png,TRUE,400,1,FALSE,0,Windows 10,Chrome 105 (105.0.0.0),,63,63,['A'],['E']
bRMS,166,260836,449.2,images/f42887_e_121 copy.png,A-E,1,68,images/f42887_e_044 copy.png,TRUE,400,1,FALSE,0,Windows 10,Chrome 105 (105.0.0.0),,63,63,['A'],['E']
bRMS,167,261767,483.2,images/f42887_e_058 copy.png,A-E,0,68,images/f42887_e_146 copy.png,TRUE,400,1,FALSE,0,Windows 10,Chrome 105 (105.0.0.0),,63,63,['A'],['E']
bRMS,168,262967,760,images/f42887_e_298 copy.png,A-E,0,75,images/f42887_e_085 copy.png,TRUE,400,1,FALSE,0,Windows 10,Chrome 105 (105.0.0.0),,63,63,['A'],['E']
bRMS,169,265578,2167.1,images/f42887_e_025 copy.png,A-E,0,75,images/f42887_e_290 copy.png,TRUE,400,1,FALSE,0,Windows 10,Chrome 105 (105.0.0.0),,63,63,['A'],['E']
instructions,170,268438,2458,,,,,,,,,,,,,,,,,
survey-multi-choice,171,270090,1651,,,,,,,,,,,,,,,,"{""Q0"":""Man""}",
survey-multi-choice,172,272812,2722,,,,,,,,,,,,,,,,"{""Q0"":""Right""}",
survey-multi-choice,173,274701,1888,,,,,,,,,,,,,,,,"{""Q0"":""Yes""}",
survey-multi-choice,174,279216,4514,,,,,,,,,,,,,,,,"{""Q0"":""Yes""}",
survey-likert,175,282811,3595,,,,,,,,,,,,,,,,"{""Q0"":3}",LAST_6
survey-likert,176,285169,2358,,,,,,,,,,,,,,,,"{""Q0"":4}",LAST_7
survey-likert,177,291389,6220,,,,,,,,,,,,,,,,"{""Q0"":4}",LAST_8
instructions,178,296539,5150,,,,,,,,,,,,,,,,,
pavlovia,0,4,,,,,,,,,,,,,,,,,,
instructions,1,1553,1549,,,,,,,,,,,,,,,,,
instructions,2,37526,35971,,,,,,,,,,,,,,,,,
bRMS,3,39371,1718,images/f42887_e_100 copy.png,training,1,68,,FALSE,400,1,FALSE,0,Windows 10,Chrome 105 (105.0.0.0),,63,63,,
bRMS,4,40897,990.2,images/f42887_e_100 copy.png,training,0,75,,FALSE,400,1,FALSE,0,Windows 10,Chrome 105 (105.0.0.0),,63,63,,
bRMS,5,42305,872.7,images/f42887_e_100 copy.png,training,0,75,,FALSE,400,1,FALSE,0,Windows 10,Chrome 105 (105.0.0.0),,63,63,,
bRMS,6,43689,833.8999999,images/f42887_e_100 copy.png,training,0,75,,FALSE,400,1,FALSE,0,Windows 10,Chrome 105 (105.0.0.0),,63,63,,
bRMS,7,44839,614.7,images/f42887_e_100 copy.png,training,1,68,,FALSE,400,1,FALSE,0,Windows 10,Chrome 105 (105.0.0.0),,63,63,,
bRMS,8,45897,512.8999999,images/f42887_e_100 copy.png,training,0,75,,FALSE,400,1,FALSE,0,Windows 10,Chrome 105 (105.0.0.0),,63,63,,
bRMS,9,47115,702.8999999,images/f42887_e_100 copy.png,training,0,75,,FALSE,400,1,FALSE,0,Windows 10,Chrome 105 (105.0.0.0),,63,63,,
bRMS,10,48073,426,images/f42887_e_100 copy.png,training,1,68,,FALSE,400,1,FALSE,0,Windows 10,Chrome 105 (105.0.0.0),,63,63,,
bRMS,11,49273,678,images/f42887_e_100 copy.png,training,1,68,,FALSE,400,1,FALSE,0,Windows 10,Chrome 105 (105.0.0.0),,63,63,,
bRMS,12,50288,477,images/f42887_e_100 copy.png,training,1,68,,FALSE,400,1,FALSE,0,Windows 10,Chrome 105 (105.0.0.0),,63,63,,
bRMS,13,51298,488.2,images/f42887_e_100 copy.png,training,1,68,,FALSE,400,1,FALSE,0,Windows 10,Chrome 105 (105.0.0.0),,63,63,,
bRMS,14,52262,438,images/f42887_e_100 copy.png,training,1,68,,FALSE,400,1,FALSE,0,Windows 10,Chrome 105 (105.0.0.0),,63,63,,
bRMS,15,53407,629.3,images/f42887_e_100 copy.png,training,0,75,,FALSE,400,1,FALSE,0,Windows 10,Chrome 105 (105.0.0.0),,63,63,,
bRMS,16,54503,574.4000001,images/f42887_e_100 copy.png,training,0,75,,FALSE,400,1,FALSE,0,Windows 10,Chrome 105 (105.0.0.0),,63,63,,
bRMS,17,55784,751.3999999,images/f42887_e_100 copy.png,training,0,75,,FALSE,400,1,FALSE,0,Windows 10,Chrome 105 (105.0.0.0),,63,63,,
bRMS,18,56989,662.8,images/f42887_e_100 copy.png,training,0,75,,FALSE,400,1,FALSE,0,Windows 10,Chrome 105 (105.0.0.0),,63,63,,
bRMS,19,57984,479.8,images/f42887_e_100 copy.png,training,1,68,,FALSE,400,1,FALSE,0,Windows 10,Chrome 105 (105.0.0.0),,63,63,,
bRMS,20,58923,402.9000001,images/f42887_e_100 copy.png,training,0,75,,FALSE,400,1,FALSE,0,Windows 10,Chrome 105 (105.0.0.0),,63,63,,
bRMS,21,59905,455.3,images/f42887_e_100 copy.png,training,1,68,,FALSE,400,1,FALSE,0,Windows 10,Chrome 105 (105.0.0.0),,63,63,,
bRMS,22,61061,617.2,images/f42887_e_100 copy.png,training,1,68,,FALSE,400,1,FALSE,0,Windows 10,Chrome 105 (105.0.0.0),,63,63,,
bRMS,23,61969,386.5999999,images/f42887_e_100 copy.png,training,0,75,,FALSE,400,1,FALSE,0,Windows 10,Chrome 105 (105.0.0.0),,63,63,,
bRMS,24,63019,516.2,images/f42887_e_100 copy.png,training,1,68,,FALSE,400,1,FALSE,0,Windows 10,Chrome 105 (105.0.0.0),,63,63,,
bRMS,25,64064,537.4000001,images/f42887_e_100 copy.png,training,1,68,,FALSE,400,1,FALSE,0,Windows 10,Chrome 105 (105.0.0.0),,63,63,,
bRMS,26,65176,570.4000001,images/f42887_e_100 copy.png,training,0,75,,FALSE,400,1,FALSE,0,Windows 10,Chrome 105 (105.0.0.0),,63,63,,
bRMS,27,66166,457.1000001,images/f42887_e_100 copy.png,training,1,68,,FALSE,400,1,FALSE,0,Windows 10,Chrome 105 (105.0.0.0),,63,63,,
bRMS,28,67121,417.4000001,images/f42887_e_100 copy.png,training,0,75,,FALSE,400,1,FALSE,0,Windows 10,Chrome 105 (105.0.0.0),,63,63,,
bRMS,29,68085,425.2,images/f42887_e_100 copy.png,training,0,75,,FALSE,400,1,FALSE,0,Windows 10,Chrome 105 (105.0.0.0),,63,63,,
bRMS,30,69050,423.1000001,images/f42887_e_100 copy.png,training,1,68,,FALSE,400,1,FALSE,0,Windows 10,Chrome 105 (105.0.0.0),,63,63,,
bRMS,31,69910,321.4000001,images/f42887_e_100 copy.png,training,1,75,,FALSE,400,1,FALSE,0,Windows 10,Chrome 105 (105.0.0.0),,63,63,,
bRMS,32,70926,480.2,images/f42887_e_100 copy.png,training,0,75,,FALSE,400,1,FALSE,0,Windows 10,Chrome 105 (105.0.0.0),,63,63,,
instructions,33,159205,87877,,,,,,,,,,,,,,,,,
bRMS,34,160032,726.5,images/f42887_e_298 copy.png,A-B,0,68,images/f42887_e_161 copy.png,TRUE,400,1,FALSE,0,Windows 10,Chrome 105 (105.0.0.0),,63,63,['A'],['B']
bRMS,35,161707,1171.6,images/f42887_e_127 copy.png,A-B,0,75,images/f42887_e_287 copy.png,TRUE,400,1,FALSE,0,Windows 10,Chrome 105 (105.0.0.0),,63,63,['A'],['B']
bRMS,36,163038,795.5999999,images/f42887_e_127 copy.png,A-B,1,68,images/f42887_e_166 copy.png,TRUE,400,1,FALSE,0,Windows 10,Chrome 105 (105.0.0.0),,63,63,['A'],['B']
bRMS,37,164114,536.4000001,images/f42887_e_058 copy.png,A-B,1,75,images/f42887_e_295 copy.png,TRUE,400,1,FALSE,0,Windows 10,Chrome 105 (105.0.0.0),,63,63,['A'],['B']
bRMS,38,165434,783.3,images/f42887_e_156 copy.png,A-B,1,75,images/f42887_e_054 copy.png,TRUE,400,1,FALSE,0,Windows 10,Chrome 105 (105.0.0.0),,63,63,['A'],['B']
bRMS,39,166611,665.9000001,images/f42887_e_064 copy.png,A-B,1,68,images/f42887_e_056 copy.png,TRUE,400,1,FALSE,0,Windows 10,Chrome 105 (105.0.0.0),,63,63,['A'],['B']
bRMS,40,167644,519.8000002,images/f42887_e_121 copy.png,A-B,0,75,images/f42887_e_231 copy.png,TRUE,400,1,FALSE,0,Windows 10,Chrome 105 (105.0.0.0),,63,63,['A'],['B']
bRMS,41,168823,670.3,images/f42887_e_156 copy.png,A-B,1,75,images/f42887_e_004 copy.png,TRUE,400,1,FALSE,0,Windows 10,Chrome 105 (105.0.0.0),,63,63,['A'],['B']
bRMS,42,170196,830,images/f42887_e_064 copy.png,A-B,0,68,images/f42887_e_200 copy.png,TRUE,400,1,FALSE,0,Windows 10,Chrome 105 (105.0.0.0),,63,63,['A'],['B']
bRMS,43,171120,410,images/f42887_e_025 copy.png,A-B,0,75,images/f42887_e_289 copy.png,TRUE,400,1,FALSE,0,Windows 10,Chrome 105 (105.0.0.0),,63,63,['A'],['B']
bRMS,44,172115,459.3000002,images/f42887_e_058 copy.png,A-B,1,75,images/f42887_e_065 copy.png,TRUE,400,1,FALSE,0,Windows 10,Chrome 105 (105.0.0.0),,63,63,['A'],['B']
bRMS,45,172974,325,images/f42887_e_252 copy.png,A-B,0,75,images/f42887_e_120 copy.png,TRUE,400,1,FALSE,0,Windows 10,Chrome 105 (105.0.0.0),,63,63,['A'],['B']
bRMS,46,173807,313.7,images/f42887_e_025 copy.png,A-B,1,68,images/f42887_e_180 copy.png,TRUE,400,1,FALSE,0,Windows 10,Chrome 105 (105.0.0.0),,63,63,['A'],['B']
bRMS,47,174724,386.4000001,images/f42887_e_252 copy.png,A-B,1,75,images/f42887_e_016 copy.png,TRUE,400,1,FALSE,0,Windows 10,Chrome 105 (105.0.0.0),,63,63,['A'],['B']
bRMS,48,175585,332.0999999,images/f42887_e_298 copy.png,A-B,0,68,images/f42887_e_191 copy.png,TRUE,400,1,FALSE,0,Windows 10,Chrome 105 (105.0.0.0),,63,63,['A'],['B']
bRMS,49,176773,677.3,images/f42887_e_005 copy.png,A-B,1,75,images/f42887_e_080 copy.png,TRUE,400,1,FALSE,0,Windows 10,Chrome 105 (105.0.0.0),,63,63,['A'],['B']
bRMS,50,177748,447.5999999,images/f42887_e_121 copy.png,A-B,0,75,images/f42887_e_235 copy.png,TRUE,400,1,FALSE,0,Windows 10,Chrome 105 (105.0.0.0),,63,63,['A'],['B']
bRMS,51,178705,432,images/f42887_e_278 copy.png,D-E,1,68,images/f42887_e_145 copy.png,TRUE,400,1,FALSE,0,Windows 10,Chrome 105 (105.0.0.0),,63,63,['D'],['E']
bRMS,52,179660,420.2,images/f42887_e_218 copy.png,D-E,0,68,images/f42887_e_290 copy.png,TRUE,400,1,FALSE,0,Windows 10,Chrome 105 (105.0.0.0),,63,63,['D'],['E']
bRMS,53,180516,342,images/f42887_e_152 copy.png,D-E,1,75,images/f42887_e_146 copy.png,TRUE,400,1,FALSE,0,Windows 10,Chrome 105 (105.0.0.0),,63,63,['D'],['E']
bRMS,54,181511,475.5999999,images/f42887_e_043 copy.png,D-E,1,68,images/f42887_e_051 copy.png,TRUE,400,1,FALSE,0,Windows 10,Chrome 105 (105.0.0.0),,63,63,['D'],['E']
bRMS,55,182405,370.8999999,images/f42887_e_237 copy.png,D-E,1,75,images/f42887_e_169 copy.png,TRUE,400,1,FALSE,0,Windows 10,Chrome 105 (105.0.0.0),,63,63,['D'],['E']
bRMS,56,183271,337.2,images/f42887_e_103 copy.png,D-E,0,68,images/f42887_e_044 copy.png,TRUE,400,1,FALSE,0,Windows 10,Chrome 105 (105.0.0.0),,63,63,['D'],['E']
bRMS,57,184074,276.3,images/f42887_e_157 copy.png,D-E,1,75,images/f42887_e_085 copy.png,TRUE,400,1,FALSE,0,Windows 10,Chrome 105 (105.0.0.0),,63,63,['D'],['E']
bRMS,58,185298,698.2,images/f42887_e_028 copy.png,D-E,0,75,images/f42887_e_209 copy.png,TRUE,400,1,FALSE,0,Windows 10,Chrome 105 (105.0.0.0),,63,63,['D'],['E']
bRMS,59,186613,792.0999999,images/f42887_e_293 copy.png,D-E,1,75,images/f42887_e_167 copy.png,TRUE,400,1,FALSE,0,Windows 10,Chrome 105 (105.0.0.0),,63,63,['D'],['E']
bRMS,60,187584,439.3,images/f42887_e_189 copy.png,D-E,0,68,images/f42887_e_213 copy.png,TRUE,400,1,FALSE,0,Windows 10,Chrome 105 (105.0.0.0),,63,63,['D'],['E']
bRMS,61,188737,638.9000001,images/f42887_e_096 copy.png,D-E,0,75,images/f42887_e_099 copy.png,TRUE,400,1,FALSE,0,Windows 10,Chrome 105 (105.0.0.0),,63,63,['D'],['E']
bRMS,62,190413,1155.6,images/f42887_e_038 copy.png,D-E,1,75,images/f42887_e_040 copy.png,TRUE,400,1,FALSE,0,Windows 10,Chrome 105 (105.0.0.0),,63,63,['D'],['E']
bRMS,63,191358,409.0999999,images/f42887_e_178 copy.png,D-E,1,68,images/f42887_e_209 copy.png,TRUE,400,1,FALSE,0,Windows 10,Chrome 105 (105.0.0.0),,63,63,['D'],['E']
bRMS,64,192284,416,images/f42887_e_122 copy.png,D-E,1,75,images/f42887_e_000 copy.png,TRUE,400,1,FALSE,0,Windows 10,Chrome 105 (105.0.0.0),,63,63,['D'],['E']
bRMS,65,193621,811.8,images/f42887_e_241 copy.png,D-E,0,68,images/f42887_e_146 copy.png,TRUE,400,1,FALSE,0,Windows 10,Chrome 105 (105.0.0.0),,63,63,['D'],['E']
bRMS,66,194688,538.9000001,images/f42887_e_296 copy.png,D-E,0,68,images/f42887_e_051 copy.png,TRUE,400,1,FALSE,0,Windows 10,Chrome 105 (105.0.0.0),,63,63,['D'],['E']
bRMS,67,196307,1105.6,images/f42887_e_165 copy.png,D-E,1,68,images/f42887_e_215 copy.png,TRUE,400,1,FALSE,0,Windows 10,Chrome 105 (105.0.0.0),,63,63,['D'],['E']
bRMS,68,197164,318.0999999,images/f42887_e_025 copy.png,A-C,1,68,images/f42887_e_240 copy.png,TRUE,400,1,FALSE,0,Windows 10,Chrome 105 (105.0.0.0),,63,63,['A'],['C']
bRMS,69,198020,332.8,images/f42887_e_121 copy.png,A-C,0,75,images/f42887_e_176 copy.png,TRUE,400,1,FALSE,0,Windows 10,Chrome 105 (105.0.0.0),,63,63,['A'],['C']
bRMS,70,198846,287.2,images/f42887_e_298 copy.png,A-C,1,68,images/f42887_e_291 copy.png,TRUE,400,1,FALSE,0,Windows 10,Chrome 105 (105.0.0.0),,63,63,['A'],['C']
bRMS,71,199727,359.7,images/f42887_e_121 copy.png,A-C,1,68,images/f42887_e_197 copy.png,TRUE,400,1,FALSE,0,Windows 10,Chrome 105 (105.0.0.0),,63,63,['A'],['C']
bRMS,72,200506,249.5999999,images/f42887_e_298 copy.png,A-C,1,68,images/f42887_e_024 copy.png,TRUE,400,1,FALSE,0,Windows 10,Chrome 105 (105.0.0.0),,63,63,['A'],['C']
bRMS,73,201181,131.1999998,images/f42887_e_064 copy.png,A-C,0,75,images/f42887_e_021 copy.png,TRUE,400,1,FALSE,0,Windows 10,Chrome 105 (105.0.0.0),,63,63,['A'],['C']
bRMS,74,201848,143.5,images/f42887_e_064 copy.png,A-C,1,68,images/f42887_e_134 copy.png,TRUE,400,1,FALSE,0,Windows 10,Chrome 105 (105.0.0.0),,63,63,['A'],['C']
bRMS,75,202449,67.79999995,images/f42887_e_252 copy.png,A-C,0,75,images/f42887_e_212 copy.png,TRUE,400,1,FALSE,0,Windows 10,Chrome 105 (105.0.0.0),,63,63,['A'],['C']
bRMS,76,203267,294.8999999,images/f42887_e_252 copy.png,A-C,1,68,images/f42887_e_210 copy.png,TRUE,400,1,FALSE,0,Windows 10,Chrome 105 (105.0.0.0),,63,63,['A'],['C']
bRMS,77,204239,448.9000001,images/f42887_e_058 copy.png,A-C,1,68,images/f42887_e_179 copy.png,TRUE,400,1,FALSE,0,Windows 10,Chrome 105 (105.0.0.0),,63,63,['A'],['C']
bRMS,78,205038,284.5999999,images/f42887_e_156 copy.png,A-C,0,68,images/f42887_e_273 copy.png,TRUE,400,1,FALSE,0,Windows 10,Chrome 105 (105.0.0.0),,63,63,['A'],['C']
bRMS,79,205857,300,images/f42887_e_058 copy.png,A-C,1,75,images/f42887_e_238 copy.png,TRUE,400,1,FALSE,0,Windows 10,Chrome 105 (105.0.0.0),,63,63,['A'],['C']
bRMS,80,206747,359.8999999,images/f42887_e_025 copy.png,A-C,1,75,images/f42887_e_068 copy.png,TRUE,400,1,FALSE,0,Windows 10,Chrome 105 (105.0.0.0),,63,63,['A'],['C']
bRMS,81,207604,316.8999999,images/f42887_e_156 copy.png,A-C,1,75,images/f42887_e_067 copy.png,TRUE,400,1,FALSE,0,Windows 10,Chrome 105 (105.0.0.0),,63,63,['A'],['C']
bRMS,82,208331,197.2,images/f42887_e_127 copy.png,A-C,1,68,images/f42887_e_265 copy.png,TRUE,400,1,FALSE,0,Windows 10,Chrome 105 (105.0.0.0),,63,63,['A'],['C']
bRMS,83,209143,293.2,images/f42887_e_127 copy.png,A-C,0,68,images/f42887_e_266 copy.png,TRUE,400,1,FALSE,0,Windows 10,Chrome 105 (105.0.0.0),,63,63,['A'],['C']
bRMS,84,209971,310.8,images/f42887_e_005 copy.png,A-C,1,68,images/f42887_e_201 copy.png,TRUE,400,1,FALSE,0,Windows 10,Chrome 105 (105.0.0.0),,63,63,['A'],['C']
bRMS,85,210915,398,images/f42887_e_067 copy.png,C-E,0,68,images/f42887_e_169 copy.png,TRUE,400,1,FALSE,0,Windows 10,Chrome 105 (105.0.0.0),,63,63,['C'],['E']
bRMS,86,211708,266,images/f42887_e_134 copy.png,C-E,0,68,images/f42887_e_146 copy.png,TRUE,400,1,FALSE,0,Windows 10,Chrome 105 (105.0.0.0),,63,63,['C'],['E']
bRMS,87,212571,334.5,images/f42887_e_238 copy.png,C-E,1,68,images/f42887_e_209 copy.png,TRUE,400,1,FALSE,0,Windows 10,Chrome 105 (105.0.0.0),,63,63,['C'],['E']
bRMS,88,213324,244.1999998,images/f42887_e_266 copy.png,C-E,0,75,images/f42887_e_000 copy.png,TRUE,400,1,FALSE,0,Windows 10,Chrome 105 (105.0.0.0),,63,63,['C'],['E']
bRMS,89,214148,292.7,images/f42887_e_201 copy.png,C-E,1,68,images/f42887_e_099 copy.png,TRUE,400,1,FALSE,0,Windows 10,Chrome 105 (105.0.0.0),,63,63,['C'],['E']
bRMS,90,215107,429,images/f42887_e_068 copy.png,C-E,1,68,images/f42887_e_146 copy.png,TRUE,400,1,FALSE,0,Windows 10,Chrome 105 (105.0.0.0),,63,63,['C'],['E']
bRMS,91,215917,283.2,images/f42887_e_212 copy.png,C-E,0,68,images/f42887_e_167 copy.png,TRUE,400,1,FALSE,0,Windows 10,Chrome 105 (105.0.0.0),,63,63,['C'],['E']
bRMS,92,216774,322.5,images/f42887_e_197 copy.png,C-E,0,68,images/f42887_e_209 copy.png,TRUE,400,1,FALSE,0,Windows 10,Chrome 105 (105.0.0.0),,63,63,['C'],['E']
bRMS,93,217541,245.9000001,images/f42887_e_176 copy.png,C-E,0,75,images/f42887_e_040 copy.png,TRUE,400,1,FALSE,0,Windows 10,Chrome 105 (105.0.0.0),,63,63,['C'],['E']
bRMS,94,218341,252.8,images/f42887_e_265 copy.png,C-E,0,68,images/f42887_e_213 copy.png,TRUE,400,1,FALSE,0,Windows 10,Chrome 105 (105.0.0.0),,63,63,['C'],['E']
bRMS,95,218982,114.3,images/f42887_e_291 copy.png,C-E,0,75,images/f42887_e_051 copy.png,TRUE,400,1,FALSE,0,Windows 10,Chrome 105 (105.0.0.0),,63,63,['C'],['E']
bRMS,96,219938,434.8,images/f42887_e_240 copy.png,C-E,0,75,images/f42887_e_215 copy.png,TRUE,400,1,FALSE,0,Windows 10,Chrome 105 (105.0.0.0),,63,63,['C'],['E']
bRMS,97,220815,353.4000001,images/f42887_e_179 copy.png,C-E,1,75,images/f42887_e_290 copy.png,TRUE,400,1,FALSE,0,Windows 10,Chrome 105 (105.0.0.0),,63,63,['C'],['E']
bRMS,98,221565,229.8000002,images/f42887_e_273 copy.png,C-E,1,75,images/f42887_e_044 copy.png,TRUE,400,1,FALSE,0,Windows 10,Chrome 105 (105.0.0.0),,63,63,['C'],['E']
bRMS,99,222312,203.7,images/f42887_e_021 copy.png,C-E,0,75,images/f42887_e_145 copy.png,TRUE,400,1,FALSE,0,Windows 10,Chrome 105 (105.0.0.0),,63,63,['C'],['E']
bRMS,100,223081,230.9000001,images/f42887_e_024 copy.png,C-E,0,75,images/f42887_e_085 copy.png,TRUE,400,1,FALSE,0,Windows 10,Chrome 105 (105.0.0.0),,63,63,['C'],['E']
bRMS,101,223733,115.4000001,images/f42887_e_210 copy.png,C-E,0,68,images/f42887_e_051 copy.png,TRUE,400,1,FALSE,0,Windows 10,Chrome 105 (105.0.0.0),,63,63,['C'],['E']
bRMS,102,224722,459.5,images/f42887_e_287 copy.png,B-E,1,68,images/f42887_e_146 copy.png,TRUE,400,1,FALSE,0,Windows 10,Chrome 105 (105.0.0.0),,63,63,['B'],['E']
bRMS,103,225579,339.2,images/f42887_e_161 copy.png,B-E,1,68,images/f42887_e_040 copy.png,TRUE,400,1,FALSE,0,Windows 10,Chrome 105 (105.0.0.0),,63,63,['B'],['E']
bRMS,104,226530,418.5,images/f42887_e_295 copy.png,B-E,0,75,images/f42887_e_051 copy.png,TRUE,400,1,FALSE,0,Windows 10,Chrome 105 (105.0.0.0),,63,63,['B'],['E']
bRMS,105,227488,426.9000001,images/f42887_e_016 copy.png,B-E,1,75,images/f42887_e_215 copy.png,TRUE,400,1,FALSE,0,Windows 10,Chrome 105 (105.0.0.0),,63,63,['B'],['E']
bRMS,106,228319,293.8,images/f42887_e_080 copy.png,B-E,1,68,images/f42887_e_146 copy.png,TRUE,400,1,FALSE,0,Windows 10,Chrome 105 (105.0.0.0),,63,63,['B'],['E']
bRMS,107,229245,378.1000001,images/f42887_e_235 copy.png,B-E,0,75,images/f42887_e_209 copy.png,TRUE,400,1,FALSE,0,Windows 10,Chrome 105 (105.0.0.0),,63,63,['B'],['E']
bRMS,108,230396,610,images/f42887_e_200 copy.png,B-E,0,68,images/f42887_e_169 copy.png,TRUE,400,1,FALSE,0,Windows 10,Chrome 105 (105.0.0.0),,63,63,['B'],['E']
bRMS,109,231731,821.8,images/f42887_e_231 copy.png,B-E,0,68,images/f42887_e_051 copy.png,TRUE,400,1,FALSE,0,Windows 10,Chrome 105 (105.0.0.0),,63,63,['B'],['E']
bRMS,110,232591,338.4000001,images/f42887_e_056 copy.png,B-E,1,68,images/f42887_e_085 copy.png,TRUE,400,1,FALSE,0,Windows 10,Chrome 105 (105.0.0.0),,63,63,['B'],['E']
bRMS,111,233369,272.8999999,images/f42887_e_166 copy.png,B-E,0,75,images/f42887_e_044 copy.png,TRUE,400,1,FALSE,0,Windows 10,Chrome 105 (105.0.0.0),,63,63,['B'],['E']
bRMS,112,234388,478.6000001,images/f42887_e_054 copy.png,B-E,0,75,images/f42887_e_145 copy.png,TRUE,400,1,FALSE,0,Windows 10,Chrome 105 (105.0.0.0),,63,63,['B'],['E']
bRMS,113,235222,305.5999999,images/f42887_e_004 copy.png,B-E,1,68,images/f42887_e_209 copy.png,TRUE,400,1,FALSE,0,Windows 10,Chrome 105 (105.0.0.0),,63,63,['B'],['E']
bRMS,114,236014,254.3,images/f42887_e_180 copy.png,B-E,0,68,images/f42887_e_213 copy.png,TRUE,400,1,FALSE,0,Windows 10,Chrome 105 (105.0.0.0),,63,63,['B'],['E']
bRMS,115,236843,312.9000001,images/f42887_e_289 copy.png,B-E,0,75,images/f42887_e_290 copy.png,TRUE,400,1,FALSE,0,Windows 10,Chrome 105 (105.0.0.0),,63,63,['B'],['E']
bRMS,116,237697,331.4000001,images/f42887_e_191 copy.png,B-E,0,75,images/f42887_e_099 copy.png,TRUE,400,1,FALSE,0,Windows 10,Chrome 105 (105.0.0.0),,63,63,['B'],['E']
bRMS,117,239197,957.0999999,images/f42887_e_120 copy.png,B-E,0,75,images/f42887_e_167 copy.png,TRUE,400,1,FALSE,0,Windows 10,Chrome 105 (105.0.0.0),,63,63,['B'],['E']
bRMS,118,239922,209.4000001,images/f42887_e_065 copy.png,B-E,0,68,images/f42887_e_000 copy.png,TRUE,400,1,FALSE,0,Windows 10,Chrome 105 (105.0.0.0),,63,63,['B'],['E']
bRMS,119,240784,334.6999998,images/f42887_e_127 copy.png,A-E,1,68,images/f42887_e_167 copy.png,TRUE,400,1,FALSE,0,Windows 10,Chrome 105 (105.0.0.0),,63,63,['A'],['E']
bRMS,120,242643,1346.1,images/f42887_e_252 copy.png,A-E,1,68,images/f42887_e_085 copy.png,TRUE,400,1,FALSE,0,Windows 10,Chrome 105 (105.0.0.0),,63,63,['A'],['E']
bRMS,121,243440,284,images/f42887_e_156 copy.png,A-E,1,75,images/f42887_e_209 copy.png,TRUE,400,1,FALSE,0,Windows 10,Chrome 105 (105.0.0.0),,63,63,['A'],['E']
bRMS,122,244664,694.1999998,images/f42887_e_121 copy.png,A-E,1,75,images/f42887_e_213 copy.png,TRUE,400,1,FALSE,0,Windows 10,Chrome 105 (105.0.0.0),,63,63,['A'],['E']
bRMS,123,245648,443.5999999,images/f42887_e_064 copy.png,A-E,1,68,images/f42887_e_209 copy.png,TRUE,400,1,FALSE,0,Windows 10,Chrome 105 (105.0.0.0),,63,63,['A'],['E']
bRMS,124,247684,1520.7,images/f42887_e_127 copy.png,A-E,1,75,images/f42887_e_146 copy.png,TRUE,400,1,FALSE,0,Windows 10,Chrome 105 (105.0.0.0),,63,63,['A'],['E']
bRMS,125,249908,1693.9,images/f42887_e_064 copy.png,A-E,0,68,images/f42887_e_146 copy.png,TRUE,400,1,FALSE,0,Windows 10,Chrome 105 (105.0.0.0),,63,63,['A'],['E']
bRMS,126,251207,785.3,images/f42887_e_121 copy.png,A-E,1,68,images/f42887_e_000 copy.png,TRUE,400,1,FALSE,0,Windows 10,Chrome 105 (105.0.0.0),,63,63,['A'],['E']
bRMS,127,252061,323.9000001,images/f42887_e_058 copy.png,A-E,0,68,images/f42887_e_044 copy.png,TRUE,400,1,FALSE,0,Windows 10,Chrome 105 (105.0.0.0),,63,63,['A'],['E']
bRMS,128,254923,2332.1,images/f42887_e_252 copy.png,A-E,0,68,images/f42887_e_051 copy.png,TRUE,400,1,FALSE,0,Windows 10,Chrome 105 (105.0.0.0),,63,63,['A'],['E']
bRMS,129,255494,42.70000005,images/f42887_e_005 copy.png,A-E,1,68,images/f42887_e_040 copy.png,TRUE,400,1,FALSE,0,Windows 10,Chrome 105 (105.0.0.0),,63,63,['A'],['E']
bRMS,130,256098,86.0999999,images/f42887_e_025 copy.png,A-E,1,68,images/f42887_e_290 copy.png,TRUE,400,1,FALSE,0,Windows 10,Chrome 105 (105.0.0.0),,63,63,['A'],['E']
bRMS,131,257009,399.3999999,images/f42887_e_025 copy.png,A-E,1,68,images/f42887_e_145 copy.png,TRUE,400,1,FALSE,0,Windows 10,Chrome 105 (105.0.0.0),,63,63,['A'],['E']
bRMS,132,257573,42,images/f42887_e_156 copy.png,A-E,0,68,images/f42887_e_215 copy.png,TRUE,400,1,FALSE,0,Windows 10,Chrome 105 (105.0.0.0),,63,63,['A'],['E']
bRMS,133,258947,851.5,images/f42887_e_058 copy.png,A-E,1,68,images/f42887_e_051 copy.png,TRUE,400,1,FALSE,0,Windows 10,Chrome 105 (105.0.0.0),,63,63,['A'],['E']
bRMS,134,259655,194.1999998,images/f42887_e_298 copy.png,A-E,0,75,images/f42887_e_099 copy.png,TRUE,400,1,FALSE,0,Windows 10,Chrome 105 (105.0.0.0),,63,63,['A'],['E']
bRMS,135,260628,459.2,images/f42887_e_298 copy.png,A-E,1,68,images/f42887_e_169 copy.png,TRUE,400,1,FALSE,0,Windows 10,Chrome 105 (105.0.0.0),,63,63,['A'],['E']
bRMS,136,261231,88.0999999,images/f42887_e_064 copy.png,A-D,1,68,images/f42887_e_165 copy.png,TRUE,400,1,FALSE,0,Windows 10,Chrome 105 (105.0.0.0),,63,63,['A'],['D']
bRMS,137,261961,210.1000001,images/f42887_e_127 copy.png,A-D,0,75,images/f42887_e_218 copy.png,TRUE,400,1,FALSE,0,Windows 10,Chrome 105 (105.0.0.0),,63,63,['A'],['D']
bRMS,138,262995,494.7,images/f42887_e_252 copy.png,A-D,0,68,images/f42887_e_293 copy.png,TRUE,400,1,FALSE,0,Windows 10,Chrome 105 (105.0.0.0),,63,63,['A'],['D']
bRMS,139,266639,3116.2,images/f42887_e_156 copy.png,A-D,0,68,images/f42887_e_028 copy.png,TRUE,400,1,FALSE,0,Windows 10,Chrome 105 (105.0.0.0),,63,63,['A'],['D']
bRMS,140,267713,562.4000001,images/f42887_e_058 copy.png,A-D,0,75,images/f42887_e_278 copy.png,TRUE,400,1,FALSE,0,Windows 10,Chrome 105 (105.0.0.0),,63,63,['A'],['D']
bRMS,141,268441,217.4000001,images/f42887_e_058 copy.png,A-D,0,68,images/f42887_e_157 copy.png,TRUE,400,1,FALSE,0,Windows 10,Chrome 105 (105.0.0.0),,63,63,['A'],['D']
bRMS,142,269646,670.5,images/f42887_e_121 copy.png,A-D,1,68,images/f42887_e_103 copy.png,TRUE,400,1,FALSE,0,Windows 10,Chrome 105 (105.0.0.0),,63,63,['A'],['D']
bRMS,143,270757,583.1000001,images/f42887_e_025 copy.png,A-D,0,68,images/f42887_e_096 copy.png,TRUE,400,1,FALSE,0,Windows 10,Chrome 105 (105.0.0.0),,63,63,['A'],['D']
bRMS,144,271999,711.6999998,images/f42887_e_298 copy.png,A-D,1,68,images/f42887_e_043 copy.png,TRUE,400,1,FALSE,0,Windows 10,Chrome 105 (105.0.0.0),,63,63,['A'],['D']
bRMS,145,273340,825.1000001,images/f42887_e_298 copy.png,A-D,1,75,images/f42887_e_296 copy.png,TRUE,400,1,FALSE,0,Windows 10,Chrome 105 (105.0.0.0),,63,63,['A'],['D']
bRMS,146,274656,802.5,images/f42887_e_005 copy.png,A-D,0,75,images/f42887_e_178 copy.png,TRUE,400,1,FALSE,0,Windows 10,Chrome 105 (105.0.0.0),,63,63,['A'],['D']
bRMS,147,275944,770.6000001,images/f42887_e_127 copy.png,A-D,0,68,images/f42887_e_237 copy.png,TRUE,400,1,FALSE,0,Windows 10,Chrome 105 (105.0.0.0),,63,63,['A'],['D']
bRMS,148,277197,736.7,images/f42887_e_156 copy.png,A-D,1,68,images/f42887_e_122 copy.png,TRUE,400,1,FALSE,0,Windows 10,Chrome 105 (105.0.0.0),,63,63,['A'],['D']
bRMS,149,278327,620,images/f42887_e_064 copy.png,A-D,1,68,images/f42887_e_189 copy.png,TRUE,400,1,FALSE,0,Windows 10,Chrome 105 (105.0.0.0),,63,63,['A'],['D']
bRMS,150,280743,1901.8,images/f42887_e_252 copy.png,A-D,1,68,images/f42887_e_152 copy.png,TRUE,400,1,FALSE,0,Windows 10,Chrome 105 (105.0.0.0),,63,63,['A'],['D']
bRMS,151,281919,651.8999999,images/f42887_e_025 copy.png,A-D,0,68,images/f42887_e_038 copy.png,TRUE,400,1,FALSE,0,Windows 10,Chrome 105 (105.0.0.0),,63,63,['A'],['D']
bRMS,152,283302,859.2,images/f42887_e_121 copy.png,A-D,1,75,images/f42887_e_241 copy.png,TRUE,400,1,FALSE,0,Windows 10,Chrome 105 (105.0.0.0),,63,63,['A'],['D']
bRMS,153,284807,990.5999999,images/f42887_e_025 copy.png,A-E,1,68,images/f42887_e_099 copy.png,TRUE,400,1,FALSE,0,Windows 10,Chrome 105 (105.0.0.0),,63,63,['A'],['E']
bRMS,154,285403,82.60000014,images/f42887_e_121 copy.png,A-E,0,75,images/f42887_e_044 copy.png,TRUE,400,1,FALSE,0,Windows 10,Chrome 105 (105.0.0.0),,63,63,['A'],['E']
bRMS,155,286376,466.4000001,images/f42887_e_064 copy.png,A-E,1,68,images/f42887_e_290 copy.png,TRUE,400,1,FALSE,0,Windows 10,Chrome 105 (105.0.0.0),,63,63,['A'],['E']
bRMS,156,287449,541.4000001,images/f42887_e_156 copy.png,A-E,0,68,images/f42887_e_167 copy.png,TRUE,400,1,FALSE,0,Windows 10,Chrome 105 (105.0.0.0),,63,63,['A'],['E']
bRMS,157,288163,189.4000001,images/f42887_e_252 copy.png,A-E,0,75,images/f42887_e_040 copy.png,TRUE,400,1,FALSE,0,Windows 10,Chrome 105 (105.0.0.0),,63,63,['A'],['E']
bRMS,158,289535,841.2,images/f42887_e_121 copy.png,A-E,1,75,images/f42887_e_051 copy.png,TRUE,400,1,FALSE,0,Windows 10,Chrome 105 (105.0.0.0),,63,63,['A'],['E']
bRMS,159,290854,790.2,images/f42887_e_127 copy.png,A-E,1,68,images/f42887_e_215 copy.png,TRUE,400,1,FALSE,0,Windows 10,Chrome 105 (105.0.0.0),,63,63,['A'],['E']
bRMS,160,291885,519.2,images/f42887_e_025 copy.png,A-E,1,75,images/f42887_e_000 copy.png,TRUE,400,1,FALSE,0,Windows 10,Chrome 105 (105.0.0.0),,63,63,['A'],['E']
bRMS,161,292776,360.5,images/f42887_e_058 copy.png,A-E,1,68,images/f42887_e_169 copy.png,TRUE,400,1,FALSE,0,Windows 10,Chrome 105 (105.0.0.0),,63,63,['A'],['E']
bRMS,162,293694,404.4000001,images/f42887_e_156 copy.png,A-E,1,68,images/f42887_e_146 copy.png,TRUE,400,1,FALSE,0,Windows 10,Chrome 105 (105.0.0.0),,63,63,['A'],['E']
bRMS,163,294639,405.2,images/f42887_e_298 copy.png,A-E,0,75,images/f42887_e_209 copy.png,TRUE,400,1,FALSE,0,Windows 10,Chrome 105 (105.0.0.0),,63,63,['A'],['E']
bRMS,164,295426,269.3,images/f42887_e_298 copy.png,A-E,1,68,images/f42887_e_085 copy.png,TRUE,400,1,FALSE,0,Windows 10,Chrome 105 (105.0.0.0),,63,63,['A'],['E']
bRMS,165,296413,463,images/f42887_e_005 copy.png,A-E,1,75,images/f42887_e_209 copy.png,TRUE,400,1,FALSE,0,Windows 10,Chrome 105 (105.0.0.0),,63,63,['A'],['E']
bRMS,166,297442,493.3,images/f42887_e_127 copy.png,A-E,0,68,images/f42887_e_145 copy.png,TRUE,400,1,FALSE,0,Windows 10,Chrome 105 (105.0.0.0),,63,63,['A'],['E']
bRMS,167,298351,374.3,images/f42887_e_252 copy.png,A-E,0,75,images/f42887_e_051 copy.png,TRUE,400,1,FALSE,0,Windows 10,Chrome 105 (105.0.0.0),,63,63,['A'],['E']
bRMS,168,299159,280.7,images/f42887_e_058 copy.png,A-E,0,68,images/f42887_e_213 copy.png,TRUE,400,1,FALSE,0,Windows 10,Chrome 105 (105.0.0.0),,63,63,['A'],['E']
bRMS,169,300021,337.3999999,images/f42887_e_064 copy.png,A-E,1,75,images/f42887_e_146 copy.png,TRUE,400,1,FALSE,0,Windows 10,Chrome 105 (105.0.0.0),,63,63,['A'],['E']
instructions,170,305304,4879,,,,,,,,,,,,,,,,,
survey-multi-choice,171,310624,5305,,,,,,,,,,,,,,,,"{""Q0"":""Woman""}",
survey-multi-choice,172,314412,3784,,,,,,,,,,,,,,,,"{""Q0"":""Right""}",
survey-multi-choice,173,317135,2718,,,,,,,,,,,,,,,,"{""Q0"":""Yes""}",
survey-multi-choice,174,325383,8243,,,,,,,,,,,,,,,,"{""Q0"":""No""}",
survey-likert,175,330397,5008,,,,,,,,,,,,,,,,"{""Q0"":2}",LAST_6
survey-likert,176,333598,3199,,,,,,,,,,,,,,,,"{""Q0"":4}",LAST_7
survey-likert,177,343315,9714,,,,,,,,,,,,,,,,"{""Q0"":3}",LAST_8
instructions,178,353106,9790,,,,,,,,,,,,,,,,,
pavlovia,0,15,,,,,,,,,,,,,,,,,,
instructions,1,1568,1552,,,,,,,,,,,,,,,,,
instructions,2,38346,36778,,,,,,,,,,,,,,,,,
bRMS,3,39886,1399.9,images/f42887_e_100 copy.png,training,0,75,,FALSE,400,1,FALSE,0,Windows 10,Chrome 104 (104.0.0.0),,63,63,,
bRMS,4,41207,726.4,images/f42887_e_100 copy.png,training,1,68,,FALSE,400,1,FALSE,0,Windows 10,Chrome 104 (104.0.0.0),,63,63,,
bRMS,5,42588,759.1,images/f42887_e_100 copy.png,training,1,68,,FALSE,400,1,FALSE,0,Windows 10,Chrome 104 (104.0.0.0),,63,63,,
bRMS,6,43765,597.1,images/f42887_e_100 copy.png,training,0,75,,FALSE,400,1,FALSE,0,Windows 10,Chrome 104 (104.0.0.0),,63,63,,
bRMS,7,44870,514.5,images/f42887_e_100 copy.png,training,0,75,,FALSE,400,1,FALSE,0,Windows 10,Chrome 104 (104.0.0.0),,63,63,,
bRMS,8,46288,825.8,images/f42887_e_100 copy.png,training,1,68,,FALSE,400,1,FALSE,0,Windows 10,Chrome 104 (104.0.0.0),,63,63,,
bRMS,9,47521,636.4000001,images/f42887_e_100 copy.png,training,0,75,,FALSE,400,1,FALSE,0,Windows 10,Chrome 104 (104.0.0.0),,63,63,,
bRMS,10,48827,718.1999999,images/f42887_e_100 copy.png,training,1,68,,FALSE,400,1,FALSE,0,Windows 10,Chrome 104 (104.0.0.0),,63,63,,
bRMS,11,50007,598.6,images/f42887_e_100 copy.png,training,0,75,,FALSE,400,1,FALSE,0,Windows 10,Chrome 104 (104.0.0.0),,63,63,,
bRMS,12,51277,684.6,images/f42887_e_100 copy.png,training,1,68,,FALSE,400,1,FALSE,0,Windows 10,Chrome 104 (104.0.0.0),,63,63,,
bRMS,13,52392,511.6,images/f42887_e_100 copy.png,training,0,75,,FALSE,400,1,FALSE,0,Windows 10,Chrome 104 (104.0.0.0),,63,63,,
bRMS,14,53502,511.5,images/f42887_e_100 copy.png,training,1,68,,FALSE,400,1,FALSE,0,Windows 10,Chrome 104 (104.0.0.0),,63,63,,
bRMS,15,54669,551.8,images/f42887_e_100 copy.png,training,1,68,,FALSE,400,1,FALSE,0,Windows 10,Chrome 104 (104.0.0.0),,63,63,,
bRMS,16,56106,854.5,images/f42887_e_100 copy.png,training,1,68,,FALSE,400,1,FALSE,0,Windows 10,Chrome 104 (104.0.0.0),,63,63,,
bRMS,17,57378,697.1999999,images/f42887_e_100 copy.png,training,0,75,,FALSE,400,1,FALSE,0,Windows 10,Chrome 104 (104.0.0.0),,63,63,,
bRMS,18,58542,585.4,images/f42887_e_100 copy.png,training,0,75,,FALSE,400,1,FALSE,0,Windows 10,Chrome 104 (104.0.0.0),,63,63,,
bRMS,19,59799,670.5,images/f42887_e_100 copy.png,training,1,68,,FALSE,400,1,FALSE,0,Windows 10,Chrome 104 (104.0.0.0),,63,63,,
bRMS,20,60901,519.9000001,images/f42887_e_100 copy.png,training,0,75,,FALSE,400,1,FALSE,0,Windows 10,Chrome 104 (104.0.0.0),,63,63,,
bRMS,21,62126,636.4,images/f42887_e_100 copy.png,training,1,68,,FALSE,400,1,FALSE,0,Windows 10,Chrome 104 (104.0.0.0),,63,63,,
bRMS,22,63225,539.9,images/f42887_e_100 copy.png,training,0,75,,FALSE,400,1,FALSE,0,Windows 10,Chrome 104 (104.0.0.0),,63,63,,
bRMS,23,64369,558.6999999,images/f42887_e_100 copy.png,training,0,75,,FALSE,400,1,FALSE,0,Windows 10,Chrome 104 (104.0.0.0),,63,63,,
bRMS,24,65686,720.7,images/f42887_e_100 copy.png,training,1,68,,FALSE,400,1,FALSE,0,Windows 10,Chrome 104 (104.0.0.0),,63,63,,
bRMS,25,66752,492.7,images/f42887_e_100 copy.png,training,0,75,,FALSE,400,1,FALSE,0,Windows 10,Chrome 104 (104.0.0.0),,63,63,,
bRMS,26,67809,485.9,images/f42887_e_100 copy.png,training,1,68,,FALSE,400,1,FALSE,0,Windows 10,Chrome 104 (104.0.0.0),,63,63,,
bRMS,27,68941,538.6,images/f42887_e_100 copy.png,training,0,75,,FALSE,400,1,FALSE,0,Windows 10,Chrome 104 (104.0.0.0),,63,63,,
bRMS,28,70159,628.5,images/f42887_e_100 copy.png,training,0,75,,FALSE,400,1,FALSE,0,Windows 10,Chrome 104 (104.0.0.0),,63,63,,
bRMS,29,71321,580.0999999,images/f42887_e_100 copy.png,training,1,68,,FALSE,400,1,FALSE,0,Windows 10,Chrome 104 (104.0.0.0),,63,63,,
bRMS,30,72574,651.4,images/f42887_e_100 copy.png,training,1,68,,FALSE,400,1,FALSE,0,Windows 10,Chrome 104 (104.0.0.0),,63,63,,
bRMS,31,73635,455.5,images/f42887_e_100 copy.png,training,1,68,,FALSE,400,1,FALSE,0,Windows 10,Chrome 104 (104.0.0.0),,63,63,,
bRMS,32,74784,571.3,images/f42887_e_100 copy.png,training,0,75,,FALSE,400,1,FALSE,0,Windows 10,Chrome 104 (104.0.0.0),,63,63,,
instructions,33,81755,6559,,,,,,,,,,,,,,,,,
bRMS,34,83235,1347.6,images/f42887_e_025 copy.png,A-B,1,68,images/f42887_e_054 copy.png,TRUE,400,1,FALSE,0,Windows 10,Chrome 104 (104.0.0.0),,63,63,['A'],['B']
bRMS,35,85285,1460.5,images/f42887_e_252 copy.png,A-B,1,68,images/f42887_e_056 copy.png,TRUE,400,1,FALSE,0,Windows 10,Chrome 104 (104.0.0.0),,63,63,['A'],['B']
bRMS,36,86539,658.2,images/f42887_e_064 copy.png,A-B,1,75,images/f42887_e_191 copy.png,TRUE,400,1,FALSE,0,Windows 10,Chrome 104 (104.0.0.0),,63,63,['A'],['B']
bRMS,37,87973,849,images/f42887_e_252 copy.png,A-B,1,75,images/f42887_e_120 copy.png,TRUE,400,1,FALSE,0,Windows 10,Chrome 104 (104.0.0.0),,63,63,['A'],['B']
bRMS,38,89236,669.5,images/f42887_e_127 copy.png,A-B,1,75,images/f42887_e_180 copy.png,TRUE,400,1,FALSE,0,Windows 10,Chrome 104 (104.0.0.0),,63,63,['A'],['B']
bRMS,39,90678,871,images/f42887_e_156 copy.png,A-B,1,68,images/f42887_e_161 copy.png,TRUE,400,1,FALSE,0,Windows 10,Chrome 104 (104.0.0.0),,63,63,['A'],['B']
bRMS,40,94546,3258.4,images/f42887_e_121 copy.png,A-B,1,68,images/f42887_e_295 copy.png,TRUE,400,1,FALSE,0,Windows 10,Chrome 104 (104.0.0.0),,63,63,['A'],['B']
bRMS,41,95959,839,images/f42887_e_298 copy.png,A-B,1,68,images/f42887_e_016 copy.png,TRUE,400,1,FALSE,0,Windows 10,Chrome 104 (104.0.0.0),,63,63,['A'],['B']
bRMS,42,97785,1229.4,images/f42887_e_005 copy.png,A-B,0,75,images/f42887_e_287 copy.png,TRUE,400,1,FALSE,0,Windows 10,Chrome 104 (104.0.0.0),,63,63,['A'],['B']
bRMS,43,99444,1082.8,images/f42887_e_064 copy.png,A-B,1,68,images/f42887_e_231 copy.png,TRUE,400,1,FALSE,0,Windows 10,Chrome 104 (104.0.0.0),,63,63,['A'],['B']
bRMS,44,100991,952.4000001,images/f42887_e_121 copy.png,A-B,1,68,images/f42887_e_235 copy.png,TRUE,400,1,FALSE,0,Windows 10,Chrome 104 (104.0.0.0),,63,63,['A'],['B']
bRMS,45,103487,1916.4,images/f42887_e_127 copy.png,A-B,1,68,images/f42887_e_080 copy.png,TRUE,400,1,FALSE,0,Windows 10,Chrome 104 (104.0.0.0),,63,63,['A'],['B']
bRMS,46,105711,1634.2,images/f42887_e_058 copy.png,A-B,1,68,images/f42887_e_289 copy.png,TRUE,400,1,FALSE,0,Windows 10,Chrome 104 (104.0.0.0),,63,63,['A'],['B']
bRMS,47,107936,1627.3,images/f42887_e_156 copy.png,A-B,0,75,images/f42887_e_065 copy.png,TRUE,400,1,FALSE,0,Windows 10,Chrome 104 (104.0.0.0),,63,63,['A'],['B']
bRMS,48,109803,1247,images/f42887_e_025 copy.png,A-B,1,75,images/f42887_e_200 copy.png,TRUE,400,1,FALSE,0,Windows 10,Chrome 104 (104.0.0.0),,63,63,['A'],['B']
bRMS,49,114811,4411.4,images/f42887_e_298 copy.png,A-B,0,75,images/f42887_e_004 copy.png,TRUE,400,1,FALSE,0,Windows 10,Chrome 104 (104.0.0.0),,63,63,['A'],['B']
bRMS,50,116886,1459.1,images/f42887_e_058 copy.png,A-B,0,75,images/f42887_e_166 copy.png,TRUE,400,1,FALSE,0,Windows 10,Chrome 104 (104.0.0.0),,63,63,['A'],['B']
bRMS,51,119729,2246,images/f42887_e_237 copy.png,D-E,0,68,images/f42887_e_099 copy.png,TRUE,400,1,FALSE,0,Windows 10,Chrome 104 (104.0.0.0),,63,63,['D'],['E']
bRMS,52,121824,1489.1,images/f42887_e_152 copy.png,D-E,0,75,images/f42887_e_290 copy.png,TRUE,400,1,FALSE,0,Windows 10,Chrome 104 (104.0.0.0),,63,63,['D'],['E']
bRMS,53,123713,1268.9,images/f42887_e_038 copy.png,D-E,1,75,images/f42887_e_167 copy.png,TRUE,400,1,FALSE,0,Windows 10,Chrome 104 (104.0.0.0),,63,63,['D'],['E']
bRMS,54,125938,1618.1,images/f42887_e_218 copy.png,D-E,0,68,images/f42887_e_209 copy.png,TRUE,400,1,FALSE,0,Windows 10,Chrome 104 (104.0.0.0),,63,63,['D'],['E']
bRMS,55,128092,1556.5,images/f42887_e_157 copy.png,D-E,0,75,images/f42887_e_209 copy.png,TRUE,400,1,FALSE,0,Windows 10,Chrome 104 (104.0.0.0),,63,63,['D'],['E']
bRMS,56,131089,2381.4,images/f42887_e_165 copy.png,D-E,0,68,images/f42887_e_000 copy.png,TRUE,400,1,FALSE,0,Windows 10,Chrome 104 (104.0.0.0),,63,63,['D'],['E']
bRMS,57,133095,1421.1,images/f42887_e_043 copy.png,D-E,0,75,images/f42887_e_040 copy.png,TRUE,400,1,FALSE,0,Windows 10,Chrome 104 (104.0.0.0),,63,63,['D'],['E']
bRMS,58,135172,1491.3,images/f42887_e_293 copy.png,D-E,1,68,images/f42887_e_051 copy.png,TRUE,400,1,FALSE,0,Windows 10,Chrome 104 (104.0.0.0),,63,63,['D'],['E']
bRMS,59,136658,910.5,images/f42887_e_278 copy.png,D-E,0,75,images/f42887_e_051 copy.png,TRUE,400,1,FALSE,0,Windows 10,Chrome 104 (104.0.0.0),,63,63,['D'],['E']
bRMS,60,138291,1033.2,images/f42887_e_178 copy.png,D-E,0,68,images/f42887_e_169 copy.png,TRUE,400,1,FALSE,0,Windows 10,Chrome 104 (104.0.0.0),,63,63,['D'],['E']
bRMS,61,140335,1443.2,images/f42887_e_103 copy.png,D-E,0,75,images/f42887_e_213 copy.png,TRUE,400,1,FALSE,0,Windows 10,Chrome 104 (104.0.0.0),,63,63,['D'],['E']
bRMS,62,142241,1289.8,images/f42887_e_122 copy.png,D-E,0,75,images/f42887_e_085 copy.png,TRUE,400,1,FALSE,0,Windows 10,Chrome 104 (104.0.0.0),,63,63,['D'],['E']
bRMS,63,145276,2448.9,images/f42887_e_241 copy.png,D-E,0,75,images/f42887_e_044 copy.png,TRUE,400,1,FALSE,0,Windows 10,Chrome 104 (104.0.0.0),,63,63,['D'],['E']
bRMS,64,147757,1886,images/f42887_e_189 copy.png,D-E,0,68,images/f42887_e_146 copy.png,TRUE,400,1,FALSE,0,Windows 10,Chrome 104 (104.0.0.0),,63,63,['D'],['E']
bRMS,65,150462,2107.6,images/f42887_e_296 copy.png,D-E,1,68,images/f42887_e_215 copy.png,TRUE,400,1,FALSE,0,Windows 10,Chrome 104 (104.0.0.0),,63,63,['D'],['E']
bRMS,66,152569,1442.5,images/f42887_e_028 copy.png,D-E,1,75,images/f42887_e_145 copy.png,TRUE,400,1,FALSE,0,Windows 10,Chrome 104 (104.0.0.0),,63,63,['D'],['E']
bRMS,67,155686,2499.3,images/f42887_e_096 copy.png,D-E,0,75,images/f42887_e_146 copy.png,TRUE,400,1,FALSE,0,Windows 10,Chrome 104 (104.0.0.0),,63,63,['D'],['E']
bRMS,68,158147,1866.4,images/f42887_e_127 copy.png,A-C,1,75,images/f42887_e_134 copy.png,TRUE,400,1,FALSE,0,Windows 10,Chrome 104 (104.0.0.0),,63,63,['A'],['C']
bRMS,69,160497,1770.6,images/f42887_e_025 copy.png,A-C,0,68,images/f42887_e_197 copy.png,TRUE,400,1,FALSE,0,Windows 10,Chrome 104 (104.0.0.0),,63,63,['A'],['C']
bRMS,70,163945,2829.1,images/f42887_e_121 copy.png,A-C,1,75,images/f42887_e_266 copy.png,TRUE,400,1,FALSE,0,Windows 10,Chrome 104 (104.0.0.0),,63,63,['A'],['C']
bRMS,71,168441,3903.7,images/f42887_e_064 copy.png,A-C,1,68,images/f42887_e_210 copy.png,TRUE,400,1,FALSE,0,Windows 10,Chrome 104 (104.0.0.0),,63,63,['A'],['C']
bRMS,72,170574,1508.3,images/f42887_e_064 copy.png,A-C,0,75,images/f42887_e_273 copy.png,TRUE,400,1,FALSE,0,Windows 10,Chrome 104 (104.0.0.0),,63,63,['A'],['C']
bRMS,73,176456,5343,images/f42887_e_298 copy.png,A-C,1,75,images/f42887_e_291 copy.png,TRUE,400,1,FALSE,0,Windows 10,Chrome 104 (104.0.0.0),,63,63,['A'],['C']
bRMS,74,179869,2803.5,images/f42887_e_252 copy.png,A-C,0,75,images/f42887_e_212 copy.png,TRUE,400,1,FALSE,0,Windows 10,Chrome 104 (104.0.0.0),,63,63,['A'],['C']
bRMS,75,182368,1960.2,images/f42887_e_058 copy.png,A-C,1,75,images/f42887_e_179 copy.png,TRUE,400,1,FALSE,0,Windows 10,Chrome 104 (104.0.0.0),,63,63,['A'],['C']
bRMS,76,185937,2970,images/f42887_e_127 copy.png,A-C,1,75,images/f42887_e_201 copy.png,TRUE,400,1,FALSE,0,Windows 10,Chrome 104 (104.0.0.0),,63,63,['A'],['C']
bRMS,77,189576,3040.8,images/f42887_e_156 copy.png,A-C,0,75,images/f42887_e_238 copy.png,TRUE,400,1,FALSE,0,Windows 10,Chrome 104 (104.0.0.0),,63,63,['A'],['C']
bRMS,78,192434,2232,images/f42887_e_058 copy.png,A-C,1,75,images/f42887_e_068 copy.png,TRUE,400,1,FALSE,0,Windows 10,Chrome 104 (104.0.0.0),,63,63,['A'],['C']
bRMS,79,196456,3389.9,images/f42887_e_298 copy.png,A-C,1,75,images/f42887_e_240 copy.png,TRUE,400,1,FALSE,0,Windows 10,Chrome 104 (104.0.0.0),,63,63,['A'],['C']
bRMS,80,203206,6142.5,images/f42887_e_156 copy.png,A-C,0,75,images/f42887_e_265 copy.png,TRUE,400,1,FALSE,0,Windows 10,Chrome 104 (104.0.0.0),,63,63,['A'],['C']
bRMS,81,209092,5296.3,images/f42887_e_005 copy.png,A-C,1,68,images/f42887_e_021 copy.png,TRUE,400,1,FALSE,0,Windows 10,Chrome 104 (104.0.0.0),,63,63,['A'],['C']
bRMS,82,211871,2176.1,images/f42887_e_121 copy.png,A-C,0,68,images/f42887_e_024 copy.png,TRUE,400,1,FALSE,0,Windows 10,Chrome 104 (104.0.0.0),,63,63,['A'],['C']
bRMS,83,214473,1997.9,images/f42887_e_025 copy.png,A-C,0,75,images/f42887_e_067 copy.png,TRUE,400,1,FALSE,0,Windows 10,Chrome 104 (104.0.0.0),,63,63,['A'],['C']
bRMS,84,218340,3264.9,images/f42887_e_252 copy.png,A-C,0,75,images/f42887_e_176 copy.png,TRUE,400,1,FALSE,0,Windows 10,Chrome 104 (104.0.0.0),,63,63,['A'],['C']
bRMS,85,221840,2895.7,images/f42887_e_134 copy.png,C-E,0,75,images/f42887_e_051 copy.png,TRUE,400,1,FALSE,0,Windows 10,Chrome 104 (104.0.0.0),,63,63,['C'],['E']
bRMS,86,223941,1522.4,images/f42887_e_265 copy.png,C-E,1,75,images/f42887_e_145 copy.png,TRUE,400,1,FALSE,0,Windows 10,Chrome 104 (104.0.0.0),,63,63,['C'],['E']
bRMS,87,226086,1550,images/f42887_e_240 copy.png,C-E,1,75,images/f42887_e_290 copy.png,TRUE,400,1,FALSE,0,Windows 10,Chrome 104 (104.0.0.0),,63,63,['C'],['E']
bRMS,88,228393,1675.2,images/f42887_e_024 copy.png,C-E,0,75,images/f42887_e_209 copy.png,TRUE,400,1,FALSE,0,Windows 10,Chrome 104 (104.0.0.0),,63,63,['C'],['E']
bRMS,89,230552,1579.4,images/f42887_e_212 copy.png,C-E,0,75,images/f42887_e_146 copy.png,TRUE,400,1,FALSE,0,Windows 10,Chrome 104 (104.0.0.0),,63,63,['C'],['E']
bRMS,90,232975,1807.2,images/f42887_e_201 copy.png,C-E,0,68,images/f42887_e_044 copy.png,TRUE,400,1,FALSE,0,Windows 10,Chrome 104 (104.0.0.0),,63,63,['C'],['E']
bRMS,91,234779,1213.5,images/f42887_e_179 copy.png,C-E,1,68,images/f42887_e_215 copy.png,TRUE,400,1,FALSE,0,Windows 10,Chrome 104 (104.0.0.0),,63,63,['C'],['E']
bRMS,92,237018,1644.3,images/f42887_e_197 copy.png,C-E,0,75,images/f42887_e_051 copy.png,TRUE,400,1,FALSE,0,Windows 10,Chrome 104 (104.0.0.0),,63,63,['C'],['E']
bRMS,93,239691,2062.6,images/f42887_e_176 copy.png,C-E,0,68,images/f42887_e_167 copy.png,TRUE,400,1,FALSE,0,Windows 10,Chrome 104 (104.0.0.0),,63,63,['C'],['E']
bRMS,94,245040,4797.4,images/f42887_e_068 copy.png,C-E,0,75,images/f42887_e_209 copy.png,TRUE,400,1,FALSE,0,Windows 10,Chrome 104 (104.0.0.0),,63,63,['C'],['E']
bRMS,95,249241,3574.6,images/f42887_e_021 copy.png,C-E,0,68,images/f42887_e_169 copy.png,TRUE,400,1,FALSE,0,Windows 10,Chrome 104 (104.0.0.0),,63,63,['C'],['E']
bRMS,96,252641,2795.8,images/f42887_e_210 copy.png,C-E,1,75,images/f42887_e_040 copy.png,TRUE,400,1,FALSE,0,Windows 10,Chrome 104 (104.0.0.0),,63,63,['C'],['E']
bRMS,97,261228,7996.8,images/f42887_e_067 copy.png,C-E,0,75,images/f42887_e_099 copy.png,TRUE,400,1,FALSE,0,Windows 10,Chrome 104 (104.0.0.0),,63,63,['C'],['E']
bRMS,98,267140,5291.6,images/f42887_e_273 copy.png,C-E,0,75,images/f42887_e_146 copy.png,TRUE,400,1,FALSE,0,Windows 10,Chrome 104 (104.0.0.0),,63,63,['C'],['E']
bRMS,99,269479,1740.2,images/f42887_e_238 copy.png,C-E,1,68,images/f42887_e_085 copy.png,TRUE,400,1,FALSE,0,Windows 10,Chrome 104 (104.0.0.0),,63,63,['C'],['E']
bRMS,100,272630,2558.8,images/f42887_e_291 copy.png,C-E,1,68,images/f42887_e_213 copy.png,TRUE,400,1,FALSE,0,Windows 10,Chrome 104 (104.0.0.0),,63,63,['C'],['E']
bRMS,101,275039,1796.5,images/f42887_e_266 copy.png,C-E,0,68,images/f42887_e_000 copy.png,TRUE,400,1,FALSE,0,Windows 10,Chrome 104 (104.0.0.0),,63,63,['C'],['E']
bRMS,102,277308,1676.5,images/f42887_e_080 copy.png,B-E,1,75,images/f42887_e_290 copy.png,TRUE,400,1,FALSE,0,Windows 10,Chrome 104 (104.0.0.0),,63,63,['B'],['E']
bRMS,103,281340,3446,images/f42887_e_016 copy.png,B-E,1,75,images/f42887_e_167 copy.png,TRUE,400,1,FALSE,0,Windows 10,Chrome 104 (104.0.0.0),,63,63,['B'],['E']
bRMS,104,282728,767.4000001,images/f42887_e_166 copy.png,B-E,0,68,images/f42887_e_146 copy.png,TRUE,400,1,FALSE,0,Windows 10,Chrome 104 (104.0.0.0),,63,63,['B'],['E']
bRMS,105,289821,6495,images/f42887_e_295 copy.png,B-E,0,68,images/f42887_e_213 copy.png,TRUE,400,1,FALSE,0,Windows 10,Chrome 104 (104.0.0.0),,63,63,['B'],['E']
bRMS,106,291958,1544.7,images/f42887_e_289 copy.png,B-E,0,68,images/f42887_e_051 copy.png,TRUE,400,1,FALSE,0,Windows 10,Chrome 104 (104.0.0.0),,63,63,['B'],['E']
bRMS,107,293653,1103.7,images/f42887_e_287 copy.png,B-E,0,68,images/f42887_e_000 copy.png,TRUE,400,1,FALSE,0,Windows 10,Chrome 104 (104.0.0.0),,63,63,['B'],['E']
bRMS,108,296736,2534,images/f42887_e_054 copy.png,B-E,0,68,images/f42887_e_040 copy.png,TRUE,400,1,FALSE,0,Windows 10,Chrome 104 (104.0.0.0),,63,63,['B'],['E']
bRMS,109,299324,1974.7,images/f42887_e_004 copy.png,B-E,1,68,images/f42887_e_209 copy.png,TRUE,400,1,FALSE,0,Windows 10,Chrome 104 (104.0.0.0),,63,63,['B'],['E']
bRMS,110,306257,6231.8,images/f42887_e_180 copy.png,B-E,0,68,images/f42887_e_145 copy.png,TRUE,400,1,FALSE,0,Windows 10,Chrome 104 (104.0.0.0),,63,63,['B'],['E']
bRMS,111,309572,2708,images/f42887_e_056 copy.png,B-E,1,68,images/f42887_e_085 copy.png,TRUE,400,1,FALSE,0,Windows 10,Chrome 104 (104.0.0.0),,63,63,['B'],['E']
bRMS,112,311224,1106,images/f42887_e_191 copy.png,B-E,0,68,images/f42887_e_051 copy.png,TRUE,400,1,FALSE,0,Windows 10,Chrome 104 (104.0.0.0),,63,63,['B'],['E']
bRMS,113,313475,1642.4,images/f42887_e_200 copy.png,B-E,0,75,images/f42887_e_044 copy.png,TRUE,400,1,FALSE,0,Windows 10,Chrome 104 (104.0.0.0),,63,63,['B'],['E']
bRMS,114,316587,2509.7,images/f42887_e_065 copy.png,B-E,1,75,images/f42887_e_169 copy.png,TRUE,400,1,FALSE,0,Windows 10,Chrome 104 (104.0.0.0),,63,63,['B'],['E']
bRMS,115,319342,2184,images/f42887_e_235 copy.png,B-E,0,75,images/f42887_e_146 copy.png,TRUE,400,1,FALSE,0,Windows 10,Chrome 104 (104.0.0.0),,63,63,['B'],['E']
bRMS,116,324475,4552.7,images/f42887_e_161 copy.png,B-E,0,68,images/f42887_e_215 copy.png,TRUE,400,1,FALSE,0,Windows 10,Chrome 104 (104.0.0.0),,63,63,['B'],['E']
bRMS,117,328929,3857.7,images/f42887_e_231 copy.png,B-E,1,75,images/f42887_e_209 copy.png,TRUE,400,1,FALSE,0,Windows 10,Chrome 104 (104.0.0.0),,63,63,['B'],['E']
bRMS,118,335561,6006.7,images/f42887_e_120 copy.png,B-E,1,75,images/f42887_e_099 copy.png,TRUE,400,1,FALSE,0,Windows 10,Chrome 104 (104.0.0.0),,63,63,['B'],['E']
bRMS,119,339807,3647.6,images/f42887_e_127 copy.png,A-E,1,75,images/f42887_e_169 copy.png,TRUE,400,1,FALSE,0,Windows 10,Chrome 104 (104.0.0.0),,63,63,['A'],['E']
bRMS,120,343362,2893.8,images/f42887_e_064 copy.png,A-E,0,75,images/f42887_e_209 copy.png,TRUE,400,1,FALSE,0,Windows 10,Chrome 104 (104.0.0.0),,63,63,['A'],['E']
bRMS,121,344839,873.1999999,images/f42887_e_025 copy.png,A-E,0,68,images/f42887_e_146 copy.png,TRUE,400,1,FALSE,0,Windows 10,Chrome 104 (104.0.0.0),,63,63,['A'],['E']
bRMS,122,347693,2259,images/f42887_e_121 copy.png,A-E,1,75,images/f42887_e_167 copy.png,TRUE,400,1,FALSE,0,Windows 10,Chrome 104 (104.0.0.0),,63,63,['A'],['E']
bRMS,123,349792,1553.5,images/f42887_e_058 copy.png,A-E,0,68,images/f42887_e_044 copy.png,TRUE,400,1,FALSE,0,Windows 10,Chrome 104 (104.0.0.0),,63,63,['A'],['E']
bRMS,124,352991,2637.4,images/f42887_e_064 copy.png,A-E,1,75,images/f42887_e_213 copy.png,TRUE,400,1,FALSE,0,Windows 10,Chrome 104 (104.0.0.0),,63,63,['A'],['E']
bRMS,125,356345,2767.4,images/f42887_e_121 copy.png,A-E,1,75,images/f42887_e_051 copy.png,TRUE,400,1,FALSE,0,Windows 10,Chrome 104 (104.0.0.0),,63,63,['A'],['E']
bRMS,126,358012,1084.3,images/f42887_e_156 copy.png,A-E,1,68,images/f42887_e_145 copy.png,TRUE,400,1,FALSE,0,Windows 10,Chrome 104 (104.0.0.0),,63,63,['A'],['E']
bRMS,127,360158,1614.1,images/f42887_e_252 copy.png,A-E,0,75,images/f42887_e_040 copy.png,TRUE,400,1,FALSE,0,Windows 10,Chrome 104 (104.0.0.0),,63,63,['A'],['E']
bRMS,128,362380,1637.4,images/f42887_e_298 copy.png,A-E,1,68,images/f42887_e_099 copy.png,TRUE,400,1,FALSE,0,Windows 10,Chrome 104 (104.0.0.0),,63,63,['A'],['E']
bRMS,129,363843,890.4,images/f42887_e_298 copy.png,A-E,0,68,images/f42887_e_000 copy.png,TRUE,400,1,FALSE,0,Windows 10,Chrome 104 (104.0.0.0),,63,63,['A'],['E']
bRMS,130,366191,1758.5,images/f42887_e_156 copy.png,A-E,0,68,images/f42887_e_146 copy.png,TRUE,400,1,FALSE,0,Windows 10,Chrome 104 (104.0.0.0),,63,63,['A'],['E']
bRMS,131,368560,1770.3,images/f42887_e_127 copy.png,A-E,1,75,images/f42887_e_290 copy.png,TRUE,400,1,FALSE,0,Windows 10,Chrome 104 (104.0.0.0),,63,63,['A'],['E']
bRMS,132,370411,1279.6,images/f42887_e_005 copy.png,A-E,1,68,images/f42887_e_209 copy.png,TRUE,400,1,FALSE,0,Windows 10,Chrome 104 (104.0.0.0),,63,63,['A'],['E']
bRMS,133,372496,1494.3,images/f42887_e_058 copy.png,A-E,0,68,images/f42887_e_051 copy.png,TRUE,400,1,FALSE,0,Windows 10,Chrome 104 (104.0.0.0),,63,63,['A'],['E']
bRMS,134,377845,4778.2,images/f42887_e_025 copy.png,A-E,0,68,images/f42887_e_215 copy.png,TRUE,400,1,FALSE,0,Windows 10,Chrome 104 (104.0.0.0),,63,63,['A'],['E']
bRMS,135,380312,1856,images/f42887_e_252 copy.png,A-E,1,75,images/f42887_e_085 copy.png,TRUE,400,1,FALSE,0,Windows 10,Chrome 104 (104.0.0.0),,63,63,['A'],['E']
bRMS,136,382479,1556.4,images/f42887_e_064 copy.png,A-D,0,68,images/f42887_e_157 copy.png,TRUE,400,1,FALSE,0,Windows 10,Chrome 104 (104.0.0.0),,63,63,['A'],['D']
bRMS,137,385389,2305.8,images/f42887_e_121 copy.png,A-D,0,68,images/f42887_e_178 copy.png,TRUE,400,1,FALSE,0,Windows 10,Chrome 104 (104.0.0.0),,63,63,['A'],['D']
bRMS,138,387010,1023.9,images/f42887_e_121 copy.png,A-D,0,68,images/f42887_e_043 copy.png,TRUE,400,1,FALSE,0,Windows 10,Chrome 104 (104.0.0.0),,63,63,['A'],['D']
bRMS,139,390844,3251.2,images/f42887_e_058 copy.png,A-D,1,75,images/f42887_e_218 copy.png,TRUE,400,1,FALSE,0,Windows 10,Chrome 104 (104.0.0.0),,63,63,['A'],['D']
bRMS,140,394564,3115.3,images/f42887_e_064 copy.png,A-D,0,68,images/f42887_e_278 copy.png,TRUE,400,1,FALSE,0,Windows 10,Chrome 104 (104.0.0.0),,63,63,['A'],['D']
bRMS,141,397062,1913.8,images/f42887_e_127 copy.png,A-D,0,68,images/f42887_e_152 copy.png,TRUE,400,1,FALSE,0,Windows 10,Chrome 104 (104.0.0.0),,63,63,['A'],['D']
bRMS,142,399569,1915.5,images/f42887_e_252 copy.png,A-D,0,68,images/f42887_e_165 copy.png,TRUE,400,1,FALSE,0,Windows 10,Chrome 104 (104.0.0.0),,63,63,['A'],['D']
bRMS,143,404875,4692.5,images/f42887_e_058 copy.png,A-D,0,75,images/f42887_e_096 copy.png,TRUE,400,1,FALSE,0,Windows 10,Chrome 104 (104.0.0.0),,63,63,['A'],['D']
bRMS,144,407129,1663.4,images/f42887_e_025 copy.png,A-D,0,68,images/f42887_e_189 copy.png,TRUE,400,1,FALSE,0,Windows 10,Chrome 104 (104.0.0.0),,63,63,['A'],['D']
bRMS,145,409305,1572.7,images/f42887_e_005 copy.png,A-D,1,75,images/f42887_e_028 copy.png,TRUE,400,1,FALSE,0,Windows 10,Chrome 104 (104.0.0.0),,63,63,['A'],['D']
bRMS,146,410894,984.7,images/f42887_e_252 copy.png,A-D,1,75,images/f42887_e_293 copy.png,TRUE,400,1,FALSE,0,Windows 10,Chrome 104 (104.0.0.0),,63,63,['A'],['D']
bRMS,147,412386,889.3000001,images/f42887_e_156 copy.png,A-D,0,68,images/f42887_e_103 copy.png,TRUE,400,1,FALSE,0,Windows 10,Chrome 104 (104.0.0.0),,63,63,['A'],['D']
bRMS,148,417344,4354.3,images/f42887_e_298 copy.png,A-D,0,68,images/f42887_e_122 copy.png,TRUE,400,1,FALSE,0,Windows 10,Chrome 104 (104.0.0.0),,63,63,['A'],['D']
bRMS,149,419392,1445.9,images/f42887_e_298 copy.png,A-D,1,68,images/f42887_e_296 copy.png,TRUE,400,1,FALSE,0,Windows 10,Chrome 104 (104.0.0.0),,63,63,['A'],['D']
bRMS,150,422411,2366.8,images/f42887_e_025 copy.png,A-D,0,75,images/f42887_e_038 copy.png,TRUE,400,1,FALSE,0,Windows 10,Chrome 104 (104.0.0.0),,63,63,['A'],['D']
bRMS,151,429409,6380.8,images/f42887_e_156 copy.png,A-D,0,75,images/f42887_e_237 copy.png,TRUE,400,1,FALSE,0,Windows 10,Chrome 104 (104.0.0.0),,63,63,['A'],['D']
bRMS,152,431061,1036.5,images/f42887_e_127 copy.png,A-D,1,68,images/f42887_e_241 copy.png,TRUE,400,1,FALSE,0,Windows 10,Chrome 104 (104.0.0.0),,63,63,['A'],['D']
bRMS,153,432773,1117.4,images/f42887_e_121 copy.png,A-E,1,68,images/f42887_e_146 copy.png,TRUE,400,1,FALSE,0,Windows 10,Chrome 104 (104.0.0.0),,63,63,['A'],['E']
bRMS,154,434355,998.7,images/f42887_e_025 copy.png,A-E,1,68,images/f42887_e_209 copy.png,TRUE,400,1,FALSE,0,Windows 10,Chrome 104 (104.0.0.0),,63,63,['A'],['E']
bRMS,155,436459,1508.7,images/f42887_e_005 copy.png,A-E,0,68,images/f42887_e_146 copy.png,TRUE,400,1,FALSE,0,Windows 10,Chrome 104 (104.0.0.0),,63,63,['A'],['E']
bRMS,156,439956,2873.9,images/f42887_e_064 copy.png,A-E,0,68,images/f42887_e_215 copy.png,TRUE,400,1,FALSE,0,Windows 10,Chrome 104 (104.0.0.0),,63,63,['A'],['E']
bRMS,157,442507,1939.8,images/f42887_e_127 copy.png,A-E,0,75,images/f42887_e_169 copy.png,TRUE,400,1,FALSE,0,Windows 10,Chrome 104 (104.0.0.0),,63,63,['A'],['E']
bRMS,158,444670,1630,images/f42887_e_064 copy.png,A-E,1,75,images/f42887_e_209 copy.png,TRUE,400,1,FALSE,0,Windows 10,Chrome 104 (104.0.0.0),,63,63,['A'],['E']
bRMS,159,446875,1663.8,images/f42887_e_252 copy.png,A-E,0,68,images/f42887_e_051 copy.png,TRUE,400,1,FALSE,0,Windows 10,Chrome 104 (104.0.0.0),,63,63,['A'],['E']
bRMS,160,448870,1414.8,images/f42887_e_298 copy.png,A-E,0,75,images/f42887_e_213 copy.png,TRUE,400,1,FALSE,0,Windows 10,Chrome 104 (104.0.0.0),,63,63,['A'],['E']
bRMS,161,451860,2400.5,images/f42887_e_156 copy.png,A-E,1,68,images/f42887_e_040 copy.png,TRUE,400,1,FALSE,0,Windows 10,Chrome 104 (104.0.0.0),,63,63,['A'],['E']
bRMS,162,454705,2278.1,images/f42887_e_298 copy.png,A-E,0,68,images/f42887_e_044 copy.png,TRUE,400,1,FALSE,0,Windows 10,Chrome 104 (104.0.0.0),,63,63,['A'],['E']
bRMS,163,458511,3228.7,images/f42887_e_127 copy.png,A-E,0,75,images/f42887_e_099 copy.png,TRUE,400,1,FALSE,0,Windows 10,Chrome 104 (104.0.0.0),,63,63,['A'],['E']
bRMS,164,460641,1533.6,images/f42887_e_121 copy.png,A-E,1,68,images/f42887_e_145 copy.png,TRUE,400,1,FALSE,0,Windows 10,Chrome 104 (104.0.0.0),,63,63,['A'],['E']
bRMS,165,465729,4499.3,images/f42887_e_058 copy.png,A-E,1,75,images/f42887_e_167 copy.png,TRUE,400,1,FALSE,0,Windows 10,Chrome 104 (104.0.0.0),,63,63,['A'],['E']
bRMS,166,469328,3014.9,images/f42887_e_156 copy.png,A-E,0,75,images/f42887_e_051 copy.png,TRUE,400,1,FALSE,0,Windows 10,Chrome 104 (104.0.0.0),,63,63,['A'],['E']
bRMS,167,473528,3590.5,images/f42887_e_058 copy.png,A-E,0,75,images/f42887_e_085 copy.png,TRUE,400,1,FALSE,0,Windows 10,Chrome 104 (104.0.0.0),,63,63,['A'],['E']
bRMS,168,476458,2307.7,images/f42887_e_025 copy.png,A-E,0,75,images/f42887_e_000 copy.png,TRUE,400,1,FALSE,0,Windows 10,Chrome 104 (104.0.0.0),,63,63,['A'],['E']
bRMS,169,479901,2840.5,images/f42887_e_252 copy.png,A-E,1,75,images/f42887_e_290 copy.png,TRUE,400,1,FALSE,0,Windows 10,Chrome 104 (104.0.0.0),,63,63,['A'],['E']
instructions,170,484316,3996,,,,,,,,,,,,,,,,,
survey-multi-choice,171,486349,2030,,,,,,,,,,,,,,,,"{""Q0"":""Man""}",
survey-multi-choice,172,488548,2198,,,,,,,,,,,,,,,,"{""Q0"":""Right""}",
survey-multi-choice,173,490348,1799,,,,,,,,,,,,,,,,"{""Q0"":""Yes""}",
survey-multi-choice,174,494468,4118,,,,,,,,,,,,,,,,"{""Q0"":""No""}",
survey-likert,175,500740,6271,,,,,,,,,,,,,,,,"{""Q0"":1}",LAST_6
survey-likert,176,503260,2519,,,,,,,,,,,,,,,,"{""Q0"":4}",LAST_7
survey-likert,177,513452,10190,,,,,,,,,,,,,,,,"{""Q0"":4}",LAST_8
instructions,178,518075,4623,,,,,,,,,,,,,,,,,
pavlovia,0,3,,,,,,,,,,,,,,,,,,
instructions,1,1516,1512,,,,,,,,,,,,,,,,,
instructions,2,36828,35312,,,,,,,,,,,,,,,,,
bRMS,3,40904,3964.6,images/f42887_e_100 copy.png,training,0,75,,FALSE,400,1,FALSE,0,Mac OS X 10_15_7,Chrome 99 (99.0.4844.83),,63,63,,
bRMS,4,42229,841,images/f42887_e_100 copy.png,training,0,75,,FALSE,400,1,FALSE,0,Mac OS X 10_15_7,Chrome 99 (99.0.4844.83),,63,63,,
bRMS,5,43716,1008.9,images/f42887_e_100 copy.png,training,0,75,,FALSE,400,1,FALSE,0,Mac OS X 10_15_7,Chrome 99 (99.0.4844.83),,63,63,,
bRMS,6,44893,699.7000003,images/f42887_e_100 copy.png,training,1,68,,FALSE,400,1,FALSE,0,Mac OS X 10_15_7,Chrome 99 (99.0.4844.83),,63,63,,
bRMS,7,46059,685.8999996,images/f42887_e_100 copy.png,training,1,68,,FALSE,400,1,FALSE,0,Mac OS X 10_15_7,Chrome 99 (99.0.4844.83),,63,63,,
bRMS,8,47251,713.3000002,images/f42887_e_100 copy.png,training,0,75,,FALSE,400,1,FALSE,0,Mac OS X 10_15_7,Chrome 99 (99.0.4844.83),,63,63,,
bRMS,9,48774,1042.4,images/f42887_e_100 copy.png,training,0,75,,FALSE,400,1,FALSE,0,Mac OS X 10_15_7,Chrome 99 (99.0.4844.83),,63,63,,
bRMS,10,50304,1049.6,images/f42887_e_100 copy.png,training,0,75,,FALSE,400,1,FALSE,0,Mac OS X 10_15_7,Chrome 99 (99.0.4844.83),,63,63,,
bRMS,11,51584,803.9000001,images/f42887_e_100 copy.png,training,1,68,,FALSE,400,1,FALSE,0,Mac OS X 10_15_7,Chrome 99 (99.0.4844.83),,63,63,,
bRMS,12,52797,728.9000001,images/f42887_e_100 copy.png,training,1,68,,FALSE,400,1,FALSE,0,Mac OS X 10_15_7,Chrome 99 (99.0.4844.83),,63,63,,
bRMS,13,54305,1024.6,images/f42887_e_100 copy.png,training,0,75,,FALSE,400,1,FALSE,0,Mac OS X 10_15_7,Chrome 99 (99.0.4844.83),,63,63,,
bRMS,14,55846,1059.1,images/f42887_e_100 copy.png,training,0,75,,FALSE,400,1,FALSE,0,Mac OS X 10_15_7,Chrome 99 (99.0.4844.83),,63,63,,
bRMS,15,57053,723.5,images/f42887_e_100 copy.png,training,1,68,,FALSE,400,1,FALSE,0,Mac OS X 10_15_7,Chrome 99 (99.0.4844.83),,63,63,,
bRMS,16,58146,611.2999997,images/f42887_e_100 copy.png,training,1,68,,FALSE,400,1,FALSE,0,Mac OS X 10_15_7,Chrome 99 (99.0.4844.83),,63,63,,
bRMS,17,59282,654.5,images/f42887_e_100 copy.png,training,1,68,,FALSE,400,1,FALSE,0,Mac OS X 10_15_7,Chrome 99 (99.0.4844.83),,63,63,,
bRMS,18,60403,641.3000002,images/f42887_e_100 copy.png,training,1,68,,FALSE,400,1,FALSE,0,Mac OS X 10_15_7,Chrome 99 (99.0.4844.83),,63,63,,
bRMS,19,61558,677.2999997,images/f42887_e_100 copy.png,training,1,68,,FALSE,400,1,FALSE,0,Mac OS X 10_15_7,Chrome 99 (99.0.4844.83),,63,63,,
bRMS,20,62699,661.5999999,images/f42887_e_100 copy.png,training,0,75,,FALSE,400,1,FALSE,0,Mac OS X 10_15_7,Chrome 99 (99.0.4844.83),,63,63,,
bRMS,21,64085,908.0999999,images/f42887_e_100 copy.png,training,0,75,,FALSE,400,1,FALSE,0,Mac OS X 10_15_7,Chrome 99 (99.0.4844.83),,63,63,,
bRMS,22,65175,608.5999999,images/f42887_e_100 copy.png,training,1,68,,FALSE,400,1,FALSE,0,Mac OS X 10_15_7,Chrome 99 (99.0.4844.83),,63,63,,
bRMS,23,66282,625.7999997,images/f42887_e_100 copy.png,training,1,68,,FALSE,400,1,FALSE,0,Mac OS X 10_15_7,Chrome 99 (99.0.4844.83),,63,63,,
bRMS,24,67361,597.5999999,images/f42887_e_100 copy.png,training,0,75,,FALSE,400,1,FALSE,0,Mac OS X 10_15_7,Chrome 99 (99.0.4844.83),,63,63,,
bRMS,25,68628,787.9000001,images/f42887_e_100 copy.png,training,0,75,,FALSE,400,1,FALSE,0,Mac OS X 10_15_7,Chrome 99 (99.0.4844.83),,63,63,,
bRMS,26,69649,538.9000001,images/f42887_e_100 copy.png,training,1,68,,FALSE,400,1,FALSE,0,Mac OS X 10_15_7,Chrome 99 (99.0.4844.83),,63,63,,
bRMS,27,70770,639.2999997,images/f42887_e_100 copy.png,training,0,75,,FALSE,400,1,FALSE,0,Mac OS X 10_15_7,Chrome 99 (99.0.4844.83),,63,63,,
bRMS,28,72009,753.5999999,images/f42887_e_100 copy.png,training,0,75,,FALSE,400,1,FALSE,0,Mac OS X 10_15_7,Chrome 99 (99.0.4844.83),,63,63,,
bRMS,29,73113,626.4000001,images/f42887_e_100 copy.png,training,0,75,,FALSE,400,1,FALSE,0,Mac OS X 10_15_7,Chrome 99 (99.0.4844.83),,63,63,,
bRMS,30,74105,510.6999998,images/f42887_e_100 copy.png,training,1,68,,FALSE,400,1,FALSE,0,Mac OS X 10_15_7,Chrome 99 (99.0.4844.83),,63,63,,
bRMS,31,75150,557.1999998,images/f42887_e_100 copy.png,training,1,68,,FALSE,400,1,FALSE,0,Mac OS X 10_15_7,Chrome 99 (99.0.4844.83),,63,63,,
bRMS,32,76179,549.5,images/f42887_e_100 copy.png,training,0,75,,FALSE,400,1,FALSE,0,Mac OS X 10_15_7,Chrome 99 (99.0.4844.83),,63,63,,
instructions,33,99016,22436,,,,,,,,,,,,,,,,,
bRMS,34,100923,1818.4,images/f42887_e_064 copy.png,A-B,0,68,images/f42887_e_004 copy.png,TRUE,400,1,FALSE,0,Mac OS X 10_15_7,Chrome 99 (99.0.4844.83),,63,63,['A'],['B']
bRMS,35,102297,893.5999999,images/f42887_e_005 copy.png,A-B,1,68,images/f42887_e_065 copy.png,TRUE,400,1,FALSE,0,Mac OS X 10_15_7,Chrome 99 (99.0.4844.83),,63,63,['A'],['B']
bRMS,36,103837,1063.2,images/f42887_e_025 copy.png,A-B,1,75,images/f42887_e_120 copy.png,TRUE,400,1,FALSE,0,Mac OS X 10_15_7,Chrome 99 (99.0.4844.83),,63,63,['A'],['B']
bRMS,37,105250,934.9000001,images/f42887_e_121 copy.png,A-B,1,68,images/f42887_e_166 copy.png,TRUE,400,1,FALSE,0,Mac OS X 10_15_7,Chrome 99 (99.0.4844.83),,63,63,['A'],['B']
bRMS,38,106568,842.9000001,images/f42887_e_252 copy.png,A-B,0,75,images/f42887_e_191 copy.png,TRUE,400,1,FALSE,0,Mac OS X 10_15_7,Chrome 99 (99.0.4844.83),,63,63,['A'],['B']
bRMS,39,107850,805.1999998,images/f42887_e_156 copy.png,A-B,0,68,images/f42887_e_016 copy.png,TRUE,400,1,FALSE,0,Mac OS X 10_15_7,Chrome 99 (99.0.4844.83),,63,63,['A'],['B']
bRMS,40,109036,710.4000001,images/f42887_e_252 copy.png,A-B,0,68,images/f42887_e_080 copy.png,TRUE,400,1,FALSE,0,Mac OS X 10_15_7,Chrome 99 (99.0.4844.83),,63,63,['A'],['B']
bRMS,41,110534,1017,images/f42887_e_298 copy.png,A-B,1,68,images/f42887_e_180 copy.png,TRUE,400,1,FALSE,0,Mac OS X 10_15_7,Chrome 99 (99.0.4844.83),,63,63,['A'],['B']
bRMS,42,111597,587.0999999,images/f42887_e_121 copy.png,A-B,0,68,images/f42887_e_287 copy.png,TRUE,400,1,FALSE,0,Mac OS X 10_15_7,Chrome 99 (99.0.4844.83),,63,63,['A'],['B']
bRMS,43,112847,773.2999997,images/f42887_e_156 copy.png,A-B,1,68,images/f42887_e_054 copy.png,TRUE,400,1,FALSE,0,Mac OS X 10_15_7,Chrome 99 (99.0.4844.83),,63,63,['A'],['B']
bRMS,44,114100,779,images/f42887_e_064 copy.png,A-B,0,75,images/f42887_e_289 copy.png,TRUE,400,1,FALSE,0,Mac OS X 10_15_7,Chrome 99 (99.0.4844.83),,63,63,['A'],['B']
bRMS,45,115281,701.5,images/f42887_e_058 copy.png,A-B,1,75,images/f42887_e_235 copy.png,TRUE,400,1,FALSE,0,Mac OS X 10_15_7,Chrome 99 (99.0.4844.83),,63,63,['A'],['B']
bRMS,46,116473,714.7999997,images/f42887_e_025 copy.png,A-B,0,68,images/f42887_e_161 copy.png,TRUE,400,1,FALSE,0,Mac OS X 10_15_7,Chrome 99 (99.0.4844.83),,63,63,['A'],['B']
bRMS,47,117678,726.5,images/f42887_e_298 copy.png,A-B,1,68,images/f42887_e_200 copy.png,TRUE,400,1,FALSE,0,Mac OS X 10_15_7,Chrome 99 (99.0.4844.83),,63,63,['A'],['B']
bRMS,48,119108,952.5,images/f42887_e_058 copy.png,A-B,0,75,images/f42887_e_056 copy.png,TRUE,400,1,FALSE,0,Mac OS X 10_15_7,Chrome 99 (99.0.4844.83),,63,63,['A'],['B']
bRMS,49,120435,848.1999998,images/f42887_e_127 copy.png,A-B,1,68,images/f42887_e_295 copy.png,TRUE,400,1,FALSE,0,Mac OS X 10_15_7,Chrome 99 (99.0.4844.83),,63,63,['A'],['B']
bRMS,50,121505,591.2999997,images/f42887_e_127 copy.png,A-B,1,68,images/f42887_e_231 copy.png,TRUE,400,1,FALSE,0,Mac OS X 10_15_7,Chrome 99 (99.0.4844.83),,63,63,['A'],['B']
bRMS,51,122679,683.0999999,images/f42887_e_237 copy.png,D-E,0,75,images/f42887_e_000 copy.png,TRUE,400,1,FALSE,0,Mac OS X 10_15_7,Chrome 99 (99.0.4844.83),,63,63,['D'],['E']
bRMS,52,123853,694.5999999,images/f42887_e_189 copy.png,D-E,0,68,images/f42887_e_044 copy.png,TRUE,400,1,FALSE,0,Mac OS X 10_15_7,Chrome 99 (99.0.4844.83),,63,63,['D'],['E']
bRMS,53,126023,1691.8,images/f42887_e_103 copy.png,D-E,1,75,images/f42887_e_146 copy.png,TRUE,400,1,FALSE,0,Mac OS X 10_15_7,Chrome 99 (99.0.4844.83),,63,63,['D'],['E']
bRMS,54,127128,622.9000001,images/f42887_e_028 copy.png,D-E,1,68,images/f42887_e_213 copy.png,TRUE,400,1,FALSE,0,Mac OS X 10_15_7,Chrome 99 (99.0.4844.83),,63,63,['D'],['E']
bRMS,55,128362,759,images/f42887_e_178 copy.png,D-E,1,75,images/f42887_e_209 copy.png,TRUE,400,1,FALSE,0,Mac OS X 10_15_7,Chrome 99 (99.0.4844.83),,63,63,['D'],['E']
bRMS,56,129444,602,images/f42887_e_122 copy.png,D-E,1,68,images/f42887_e_146 copy.png,TRUE,400,1,FALSE,0,Mac OS X 10_15_7,Chrome 99 (99.0.4844.83),,63,63,['D'],['E']
bRMS,57,130886,965.8000002,images/f42887_e_038 copy.png,D-E,1,75,images/f42887_e_145 copy.png,TRUE,400,1,FALSE,0,Mac OS X 10_15_7,Chrome 99 (99.0.4844.83),,63,63,['D'],['E']
bRMS,58,132558,1189,images/f42887_e_218 copy.png,D-E,1,68,images/f42887_e_215 copy.png,TRUE,400,1,FALSE,0,Mac OS X 10_15_7,Chrome 99 (99.0.4844.83),,63,63,['D'],['E']
bRMS,59,134248,1207.4,images/f42887_e_241 copy.png,D-E,0,68,images/f42887_e_169 copy.png,TRUE,400,1,FALSE,0,Mac OS X 10_15_7,Chrome 99 (99.0.4844.83),,63,63,['D'],['E']
bRMS,60,135797,1068.7,images/f42887_e_296 copy.png,D-E,0,68,images/f42887_e_099 copy.png,TRUE,400,1,FALSE,0,Mac OS X 10_15_7,Chrome 99 (99.0.4844.83),,63,63,['D'],['E']
bRMS,61,137293,1020.8,images/f42887_e_043 copy.png,D-E,0,75,images/f42887_e_209 copy.png,TRUE,400,1,FALSE,0,Mac OS X 10_15_7,Chrome 99 (99.0.4844.83),,63,63,['D'],['E']
bRMS,62,138764,991.6999998,images/f42887_e_096 copy.png,D-E,1,75,images/f42887_e_167 copy.png,TRUE,400,1,FALSE,0,Mac OS X 10_15_7,Chrome 99 (99.0.4844.83),,63,63,['D'],['E']
bRMS,63,140155,909.1000004,images/f42887_e_293 copy.png,D-E,1,68,images/f42887_e_040 copy.png,TRUE,400,1,FALSE,0,Mac OS X 10_15_7,Chrome 99 (99.0.4844.83),,63,63,['D'],['E']
bRMS,64,141596,961,images/f42887_e_152 copy.png,D-E,1,68,images/f42887_e_085 copy.png,TRUE,400,1,FALSE,0,Mac OS X 10_15_7,Chrome 99 (99.0.4844.83),,63,63,['D'],['E']
bRMS,65,142996,919.3000002,images/f42887_e_157 copy.png,D-E,0,68,images/f42887_e_051 copy.png,TRUE,400,1,FALSE,0,Mac OS X 10_15_7,Chrome 99 (99.0.4844.83),,63,63,['D'],['E']
bRMS,66,144438,966.3000002,images/f42887_e_165 copy.png,D-E,1,75,images/f42887_e_051 copy.png,TRUE,400,1,FALSE,0,Mac OS X 10_15_7,Chrome 99 (99.0.4844.83),,63,63,['D'],['E']
bRMS,67,145738,823.0999999,images/f42887_e_278 copy.png,D-E,1,68,images/f42887_e_290 copy.png,TRUE,400,1,FALSE,0,Mac OS X 10_15_7,Chrome 99 (99.0.4844.83),,63,63,['D'],['E']
bRMS,68,147078,862.0999999,images/f42887_e_025 copy.png,A-C,0,68,images/f42887_e_021 copy.png,TRUE,400,1,FALSE,0,Mac OS X 10_15_7,Chrome 99 (99.0.4844.83),,63,63,['A'],['C']
bRMS,69,148429,866.5,images/f42887_e_252 copy.png,A-C,1,68,images/f42887_e_176 copy.png,TRUE,400,1,FALSE,0,Mac OS X 10_15_7,Chrome 99 (99.0.4844.83),,63,63,['A'],['C']
bRMS,70,149725,810.6000004,images/f42887_e_121 copy.png,A-C,1,68,images/f42887_e_067 copy.png,TRUE,400,1,FALSE,0,Mac OS X 10_15_7,Chrome 99 (99.0.4844.83),,63,63,['A'],['C']
bRMS,71,151119,916.3000002,images/f42887_e_156 copy.png,A-C,0,75,images/f42887_e_201 copy.png,TRUE,400,1,FALSE,0,Mac OS X 10_15_7,Chrome 99 (99.0.4844.83),,63,63,['A'],['C']
bRMS,72,152655,1057.1,images/f42887_e_156 copy.png,A-C,0,75,images/f42887_e_179 copy.png,TRUE,400,1,FALSE,0,Mac OS X 10_15_7,Chrome 99 (99.0.4844.83),,63,63,['A'],['C']
bRMS,73,154135,999.9000001,images/f42887_e_127 copy.png,A-C,0,68,images/f42887_e_197 copy.png,TRUE,400,1,FALSE,0,Mac OS X 10_15_7,Chrome 99 (99.0.4844.83),,63,63,['A'],['C']
bRMS,74,155689,1074.5,images/f42887_e_064 copy.png,A-C,0,75,images/f42887_e_266 copy.png,TRUE,400,1,FALSE,0,Mac OS X 10_15_7,Chrome 99 (99.0.4844.83),,63,63,['A'],['C']
bRMS,75,157121,949.6999998,images/f42887_e_298 copy.png,A-C,1,68,images/f42887_e_212 copy.png,TRUE,400,1,FALSE,0,Mac OS X 10_15_7,Chrome 99 (99.0.4844.83),,63,63,['A'],['C']
bRMS,76,158675,1072.5,images/f42887_e_058 copy.png,A-C,0,68,images/f42887_e_291 copy.png,TRUE,400,1,FALSE,0,Mac OS X 10_15_7,Chrome 99 (99.0.4844.83),,63,63,['A'],['C']
bRMS,77,160176,1020.9,images/f42887_e_127 copy.png,A-C,1,68,images/f42887_e_265 copy.png,TRUE,400,1,FALSE,0,Mac OS X 10_15_7,Chrome 99 (99.0.4844.83),,63,63,['A'],['C']
bRMS,78,161531,875,images/f42887_e_005 copy.png,A-C,0,68,images/f42887_e_238 copy.png,TRUE,400,1,FALSE,0,Mac OS X 10_15_7,Chrome 99 (99.0.4844.83),,63,63,['A'],['C']
bRMS,79,163071,1062.5,images/f42887_e_121 copy.png,A-C,1,75,images/f42887_e_134 copy.png,TRUE,400,1,FALSE,0,Mac OS X 10_15_7,Chrome 99 (99.0.4844.83),,63,63,['A'],['C']
bRMS,80,164426,876.1999998,images/f42887_e_064 copy.png,A-C,0,75,images/f42887_e_240 copy.png,TRUE,400,1,FALSE,0,Mac OS X 10_15_7,Chrome 99 (99.0.4844.83),,63,63,['A'],['C']
bRMS,81,166028,1123.7,images/f42887_e_025 copy.png,A-C,1,75,images/f42887_e_273 copy.png,TRUE,400,1,FALSE,0,Mac OS X 10_15_7,Chrome 99 (99.0.4844.83),,63,63,['A'],['C']
bRMS,82,167466,958.3999996,images/f42887_e_252 copy.png,A-C,0,75,images/f42887_e_068 copy.png,TRUE,400,1,FALSE,0,Mac OS X 10_15_7,Chrome 99 (99.0.4844.83),,63,63,['A'],['C']
bRMS,83,168940,996.9000001,images/f42887_e_298 copy.png,A-C,0,68,images/f42887_e_024 copy.png,TRUE,400,1,FALSE,0,Mac OS X 10_15_7,Chrome 99 (99.0.4844.83),,63,63,['A'],['C']
bRMS,84,170497,1084.5,images/f42887_e_058 copy.png,A-C,0,75,images/f42887_e_210 copy.png,TRUE,400,1,FALSE,0,Mac OS X 10_15_7,Chrome 99 (99.0.4844.83),,63,63,['A'],['C']
bRMS,85,172952,1978.5,images/f42887_e_265 copy.png,C-E,1,68,images/f42887_e_215 copy.png,TRUE,400,1,FALSE,0,Mac OS X 10_15_7,Chrome 99 (99.0.4844.83),,63,63,['C'],['E']
bRMS,86,174865,1436.8,images/f42887_e_068 copy.png,C-E,1,75,images/f42887_e_051 copy.png,TRUE,400,1,FALSE,0,Mac OS X 10_15_7,Chrome 99 (99.0.4844.83),,63,63,['C'],['E']
bRMS,87,176325,982.7999997,images/f42887_e_210 copy.png,C-E,0,68,images/f42887_e_044 copy.png,TRUE,400,1,FALSE,0,Mac OS X 10_15_7,Chrome 99 (99.0.4844.83),,63,63,['C'],['E']
bRMS,88,177851,1048.9,images/f42887_e_067 copy.png,C-E,0,75,images/f42887_e_290 copy.png,TRUE,400,1,FALSE,0,Mac OS X 10_15_7,Chrome 99 (99.0.4844.83),,63,63,['C'],['E']
bRMS,89,179105,768.7999997,images/f42887_e_266 copy.png,C-E,0,68,images/f42887_e_213 copy.png,TRUE,400,1,FALSE,0,Mac OS X 10_15_7,Chrome 99 (99.0.4844.83),,63,63,['C'],['E']
bRMS,90,181220,1635.6,images/f42887_e_197 copy.png,C-E,1,75,images/f42887_e_209 copy.png,TRUE,400,1,FALSE,0,Mac OS X 10_15_7,Chrome 99 (99.0.4844.83),,63,63,['C'],['E']
bRMS,91,183255,1556.7,images/f42887_e_176 copy.png,C-E,1,75,images/f42887_e_146 copy.png,TRUE,400,1,FALSE,0,Mac OS X 10_15_7,Chrome 99 (99.0.4844.83),,63,63,['C'],['E']
bRMS,92,184563,830.5999999,images/f42887_e_134 copy.png,C-E,0,68,images/f42887_e_146 copy.png,TRUE,400,1,FALSE,0,Mac OS X 10_15_7,Chrome 99 (99.0.4844.83),,63,63,['C'],['E']
bRMS,93,186090,1050.9,images/f42887_e_021 copy.png,C-E,1,68,images/f42887_e_000 copy.png,TRUE,400,1,FALSE,0,Mac OS X 10_15_7,Chrome 99 (99.0.4844.83),,63,63,['C'],['E']
bRMS,94,187526,957.7000003,images/f42887_e_240 copy.png,C-E,0,68,images/f42887_e_040 copy.png,TRUE,400,1,FALSE,0,Mac OS X 10_15_7,Chrome 99 (99.0.4844.83),,63,63,['C'],['E']
bRMS,95,188993,987.3000002,images/f42887_e_291 copy.png,C-E,0,75,images/f42887_e_145 copy.png,TRUE,400,1,FALSE,0,Mac OS X 10_15_7,Chrome 99 (99.0.4844.83),,63,63,['C'],['E']
bRMS,96,190224,750.8999996,images/f42887_e_024 copy.png,C-E,1,68,images/f42887_e_169 copy.png,TRUE,400,1,FALSE,0,Mac OS X 10_15_7,Chrome 99 (99.0.4844.83),,63,63,['C'],['E']
bRMS,97,192103,1399.5,images/f42887_e_212 copy.png,C-E,0,75,images/f42887_e_085 copy.png,TRUE,400,1,FALSE,0,Mac OS X 10_15_7,Chrome 99 (99.0.4844.83),,63,63,['C'],['E']
bRMS,98,193676,1092.8,images/f42887_e_238 copy.png,C-E,0,68,images/f42887_e_209 copy.png,TRUE,400,1,FALSE,0,Mac OS X 10_15_7,Chrome 99 (99.0.4844.83),,63,63,['C'],['E']
bRMS,99,195183,1029.1,images/f42887_e_201 copy.png,C-E,0,75,images/f42887_e_099 copy.png,TRUE,400,1,FALSE,0,Mac OS X 10_15_7,Chrome 99 (99.0.4844.83),,63,63,['C'],['E']
bRMS,100,196689,1026.1,images/f42887_e_179 copy.png,C-E,0,75,images/f42887_e_051 copy.png,TRUE,400,1,FALSE,0,Mac OS X 10_15_7,Chrome 99 (99.0.4844.83),,63,63,['C'],['E']
bRMS,101,197971,803.6999998,images/f42887_e_273 copy.png,C-E,1,68,images/f42887_e_167 copy.png,TRUE,400,1,FALSE,0,Mac OS X 10_15_7,Chrome 99 (99.0.4844.83),,63,63,['C'],['E']
bRMS,102,199397,949.8000002,images/f42887_e_056 copy.png,B-E,0,68,images/f42887_e_215 copy.png,TRUE,400,1,FALSE,0,Mac OS X 10_15_7,Chrome 99 (99.0.4844.83),,63,63,['B'],['E']
bRMS,103,200602,722.8999996,images/f42887_e_287 copy.png,B-E,1,68,images/f42887_e_213 copy.png,TRUE,400,1,FALSE,0,Mac OS X 10_15_7,Chrome 99 (99.0.4844.83),,63,63,['B'],['E']
bRMS,104,202587,1506.2,images/f42887_e_191 copy.png,B-E,0,75,images/f42887_e_146 copy.png,TRUE,400,1,FALSE,0,Mac OS X 10_15_7,Chrome 99 (99.0.4844.83),,63,63,['B'],['E']
bRMS,105,205316,2252.3,images/f42887_e_231 copy.png,B-E,0,75,images/f42887_e_145 copy.png,TRUE,400,1,FALSE,0,Mac OS X 10_15_7,Chrome 99 (99.0.4844.83),,63,63,['B'],['E']
bRMS,106,207714,1919.1,images/f42887_e_235 copy.png,B-E,1,75,images/f42887_e_169 copy.png,TRUE,400,1,FALSE,0,Mac OS X 10_15_7,Chrome 99 (99.0.4844.83),,63,63,['B'],['E']
bRMS,107,210300,2108.4,images/f42887_e_200 copy.png,B-E,1,75,images/f42887_e_209 copy.png,TRUE,400,1,FALSE,0,Mac OS X 10_15_7,Chrome 99 (99.0.4844.83),,63,63,['B'],['E']
bRMS,108,212763,1986.9,images/f42887_e_180 copy.png,B-E,0,75,images/f42887_e_209 copy.png,TRUE,400,1,FALSE,0,Mac OS X 10_15_7,Chrome 99 (99.0.4844.83),,63,63,['B'],['E']
bRMS,109,215672,2426.6,images/f42887_e_065 copy.png,B-E,1,75,images/f42887_e_085 copy.png,TRUE,400,1,FALSE,0,Mac OS X 10_15_7,Chrome 99 (99.0.4844.83),,63,63,['B'],['E']
bRMS,110,217793,1644.8,images/f42887_e_054 copy.png,B-E,0,68,images/f42887_e_146 copy.png,TRUE,400,1,FALSE,0,Mac OS X 10_15_7,Chrome 99 (99.0.4844.83),,63,63,['B'],['E']
bRMS,111,220135,1864.8,images/f42887_e_080 copy.png,B-E,1,75,images/f42887_e_099 copy.png,TRUE,400,1,FALSE,0,Mac OS X 10_15_7,Chrome 99 (99.0.4844.83),,63,63,['B'],['E']
bRMS,112,221856,1242.9,images/f42887_e_289 copy.png,B-E,1,68,images/f42887_e_051 copy.png,TRUE,400,1,FALSE,0,Mac OS X 10_15_7,Chrome 99 (99.0.4844.83),,63,63,['B'],['E']
bRMS,113,224528,2192.5,images/f42887_e_016 copy.png,B-E,1,75,images/f42887_e_044 copy.png,TRUE,400,1,FALSE,0,Mac OS X 10_15_7,Chrome 99 (99.0.4844.83),,63,63,['B'],['E']
bRMS,114,226557,1548.9,images/f42887_e_166 copy.png,B-E,0,75,images/f42887_e_040 copy.png,TRUE,400,1,FALSE,0,Mac OS X 10_15_7,Chrome 99 (99.0.4844.83),,63,63,['B'],['E']
bRMS,115,228800,1767.3,images/f42887_e_161 copy.png,B-E,1,68,images/f42887_e_290 copy.png,TRUE,400,1,FALSE,0,Mac OS X 10_15_7,Chrome 99 (99.0.4844.83),,63,63,['B'],['E']
bRMS,116,230929,1651.2,images/f42887_e_295 copy.png,B-E,1,75,images/f42887_e_000 copy.png,TRUE,400,1,FALSE,0,Mac OS X 10_15_7,Chrome 99 (99.0.4844.83),,63,63,['B'],['E']
bRMS,117,233284,1866.1,images/f42887_e_120 copy.png,B-E,0,75,images/f42887_e_167 copy.png,TRUE,400,1,FALSE,0,Mac OS X 10_15_7,Chrome 99 (99.0.4844.83),,63,63,['B'],['E']
bRMS,118,234829,1070,images/f42887_e_004 copy.png,B-E,0,68,images/f42887_e_051 copy.png,TRUE,400,1,FALSE,0,Mac OS X 10_15_7,Chrome 99 (99.0.4844.83),,63,63,['B'],['E']
bRMS,119,236560,1255.7,images/f42887_e_064 copy.png,A-E,0,68,images/f42887_e_146 copy.png,TRUE,400,1,FALSE,0,Mac OS X 10_15_7,Chrome 99 (99.0.4844.83),,63,63,['A'],['E']
bRMS,120,238265,1225.8,images/f42887_e_025 copy.png,A-E,0,75,images/f42887_e_099 copy.png,TRUE,400,1,FALSE,0,Mac OS X 10_15_7,Chrome 99 (99.0.4844.83),,63,63,['A'],['E']
bRMS,121,239902,1159.5,images/f42887_e_298 copy.png,A-E,1,68,images/f42887_e_209 copy.png,TRUE,400,1,FALSE,0,Mac OS X 10_15_7,Chrome 99 (99.0.4844.83),,63,63,['A'],['E']
bRMS,122,241605,1224.6,images/f42887_e_005 copy.png,A-E,0,75,images/f42887_e_051 copy.png,TRUE,400,1,FALSE,0,Mac OS X 10_15_7,Chrome 99 (99.0.4844.83),,63,63,['A'],['E']
bRMS,123,242908,821.8000002,images/f42887_e_127 copy.png,A-E,1,75,images/f42887_e_145 copy.png,TRUE,400,1,FALSE,0,Mac OS X 10_15_7,Chrome 99 (99.0.4844.83),,63,63,['A'],['E']
bRMS,124,244776,1388.1,images/f42887_e_156 copy.png,A-E,1,68,images/f42887_e_085 copy.png,TRUE,400,1,FALSE,0,Mac OS X 10_15_7,Chrome 99 (99.0.4844.83),,63,63,['A'],['E']
bRMS,125,246962,1708.4,images/f42887_e_058 copy.png,A-E,1,68,images/f42887_e_290 copy.png,TRUE,400,1,FALSE,0,Mac OS X 10_15_7,Chrome 99 (99.0.4844.83),,63,63,['A'],['E']
